Folder: HEA_electrocatalysis_ML/Burgel/15453660/Composition_Dataset

Note: README.md
# HEA_electrocatalysis_ML

File: ML_1_near-equiatomic_Pd-Pt-Ru_EDX.csv
Index,N,Pd,Pt,Ru
1,4.51,35.34,18.81,45.84
3,0.0,28.5,19.3,52.2
5,6.89,22.85,20.51,56.63
7,6.09,18.32,20.24,61.43
9,9.91,14.59,21.32,64.09
11,7.39,12.43,20.81,66.75
13,6.25,36.04,19.45,44.52
15,6.19,29.82,20.58,49.6
17,6.61,24.84,20.85,54.31
19,7.0,19.86,21.7,58.45
21,6.32,16.38,22.27,61.35
23,7.55,12.39,22.53,65.09
25,6.84,44.74,18.52,36.74
27,5.97,38.76,19.59,41.66
29,6.72,30.96,21.4,47.65
31,5.36,26.56,22.86,50.58
33,5.83,20.77,23.11,56.12
35,8.66,17.03,24.39,58.58
37,0.0,13.65,25.07,61.28
39,9.64,10.39,24.84,64.78
41,5.19,47.75,18.8,33.45
43,0.0,40.21,21.26,38.53
45,5.63,34.0,22.6,43.41
47,0.0,28.98,23.15,47.86
49,0.0,22.58,24.99,52.43
51,8.02,18.2,25.55,56.25
53,0.0,13.03,26.46,60.5
55,8.48,11.25,27.07,61.68
57,5.91,55.85,18.58,25.57
59,8.21,49.27,20.02,30.71
61,9.81,43.0,20.97,36.03
63,6.87,35.97,23.45,40.58
65,6.55,30.14,24.69,45.18
67,6.43,24.5,25.9,49.6
69,5.8,20.2,27.49,52.3
71,7.24,14.74,28.49,56.77
73,9.18,12.55,28.71,58.75
75,7.05,9.13,28.74,62.13
77,0.0,54.61,19.61,25.78
79,0.0,49.6,21.0,29.4
81,5.31,40.82,22.92,36.27
83,8.79,34.64,24.94,40.42
85,5.37,28.96,26.0,45.05
87,7.69,23.22,27.89,48.89
89,7.14,18.11,29.31,52.58
91,5.62,13.47,30.51,56.02
93,0.0,11.27,30.77,57.96
95,0.0,63.87,17.67,18.46
97,9.01,57.41,19.43,23.16
99,5.8,49.44,22.51,28.05
101,5.91,42.89,23.5,33.61
103,5.75,37.08,24.89,38.04
105,6.44,29.49,27.74,42.77
107,9.32,23.7,29.49,46.81
109,5.37,19.56,30.6,49.84
111,8.61,15.38,32.01,52.6
113,7.66,11.93,31.76,56.31
115,7.43,9.99,32.16,57.85
117,7.22,61.12,18.99,19.88
119,5.37,54.08,21.56,24.36
121,0.0,48.4,23.23,28.37
123,7.25,40.63,26.06,33.32
125,8.26,34.65,27.54,37.81
127,0.0,28.57,29.13,42.3
129,8.33,23.14,31.05,45.82
131,5.85,17.31,33.36,49.32
133,7.33,14.37,33.61,52.01
135,7.17,10.87,34.04,55.09
137,5.19,65.27,18.09,16.64
139,0.0,58.37,20.64,20.99
141,7.66,52.65,22.92,24.43
143,0.0,46.15,25.42,28.43
145,0.0,39.46,27.74,32.79
147,6.66,32.93,29.71,37.35
149,6.92,27.01,31.6,41.39
151,6.98,21.88,33.07,45.05
153,8.35,15.91,35.56,48.54
155,6.05,13.22,35.86,50.92
157,8.33,9.83,37.27,52.9
159,6.24,64.27,19.71,16.02
161,0.0,57.63,22.23,20.15
163,9.85,50.79,25.37,23.84
165,7.09,44.55,27.23,28.21
167,5.74,38.22,29.64,32.14
169,6.1,32.03,31.31,36.66
171,6.27,25.48,34.29,40.23
173,0.0,19.77,36.4,43.83
175,9.35,14.57,37.95,47.48
177,6.83,11.2,39.11,49.69
179,6.47,67.86,18.35,13.78
181,0.0,62.3,21.14,16.56
183,0.0,54.96,24.86,20.18
185,7.73,49.65,26.55,23.8
187,7.32,41.54,29.39,29.08
189,8.95,36.01,32.25,31.73
191,6.14,30.04,33.84,36.13
193,7.31,24.75,36.51,38.75
195,8.98,18.54,38.6,42.85
197,6.67,14.04,40.23,45.73
199,6.47,10.51,41.74,47.75
201,6.57,66.14,20.65,13.2
203,5.66,59.55,23.83,16.62
205,0.0,52.84,26.72,20.44
207,10.53,46.47,29.52,24.01
209,6.51,40.49,31.62,27.89
211,5.92,34.63,34.15,31.22
213,6.55,27.37,37.6,35.02
215,6.04,21.39,39.47,39.14
217,0.0,17.08,41.17,41.75
219,7.12,13.03,42.84,44.12
221,7.27,70.03,19.07,10.9
223,5.97,63.55,22.68,13.77
225,0.0,57.52,25.45,17.03
227,6.18,51.9,28.55,19.55
229,0.0,45.87,31.42,22.72
231,7.29,38.48,33.95,27.57
233,0.0,32.51,36.73,30.76
235,9.1,25.38,39.42,35.21
237,5.94,20.38,42.81,36.81
239,7.56,15.12,44.94,39.95
241,8.21,11.64,46.13,42.23
243,0.0,64.56,22.82,12.62
245,9.11,58.74,26.38,14.88
247,0.0,52.19,29.73,18.08
249,0.0,46.52,32.11,21.37
251,0.0,40.06,35.3,24.64
253,6.18,33.36,38.44,28.2
255,6.87,25.93,41.8,32.27
257,0.0,20.31,45.49,34.21
259,8.26,15.54,47.15,37.31
261,5.82,67.78,21.11,11.11
263,7.27,62.37,24.74,12.89
265,7.31,56.54,28.56,14.9
267,8.32,50.63,31.44,17.94
269,9.68,44.16,34.76,21.08
271,8.84,37.39,38.12,24.49
273,6.5,31.36,42.24,26.4
275,8.23,23.78,45.77,30.45
277,8.77,18.65,48.59,32.76
279,5.64,14.55,50.44,35.0
281,8.66,62.76,25.51,11.73
283,8.46,58.33,28.92,12.75
285,6.9,51.5,32.5,16.0
287,0.0,45.06,36.05,18.9
289,6.07,38.6,40.26,21.14
291,8.64,30.97,43.83,25.2
293,6.82,25.04,47.71,27.24
295,6.96,19.44,50.73,29.84
297,0.0,63.74,25.58,10.68
299,0.0,58.56,29.51,11.94
301,8.51,52.24,32.73,15.03
303,0.0,45.41,37.03,17.56
305,7.99,39.65,41.06,19.29
307,8.63,32.52,46.17,21.3
309,7.45,24.97,49.93,25.1
311,0.0,19.62,53.49,26.88
313,0.0,59.22,30.0,10.79
315,7.62,53.02,34.18,12.8
317,5.89,46.62,38.5,14.88
319,9.69,40.57,41.92,17.51
321,0.0,32.97,47.7,19.33
323,6.15,25.82,51.6,22.57
325,0.0,59.25,30.38,10.38
327,9.81,52.5,34.83,12.67
329,0.0,47.12,39.14,13.74
331,0.0,40.31,43.95,15.74
333,0.0,33.22,49.25,17.53
335,6.51,26.34,53.75,19.91
337,6.97,50.54,38.43,11.03
339,8.43,42.95,43.42,13.63
341,8.17,35.37,49.51,15.12
342,0.0,33.15,50.51,16.33

File: ML_2_Pt-rich_Ni-Pd-Pt-Ru_EDX.csv
Index,Ni,Pd,Pt,Ru
1,33.76,6.47,48.52,11.25
3,29.75,5.31,52.22,12.72
5,26.03,4.24,55.24,14.49
7,20.5,3.91,59.24,16.35
9,17.94,3.4,61.2,17.47
11,15.17,2.3,63.45,19.08
13,32.18,5.69,51.61,10.52
15,27.9,4.73,55.44,11.94
17,24.21,5.04,57.61,13.14
19,19.62,3.48,61.6,15.3
21,16.65,3.24,63.46,16.65
23,14.89,2.87,65.21,17.02
25,33.42,7.86,50.33,8.39
27,28.79,6.81,55.08,9.32
29,24.63,5.77,58.07,11.53
31,21.22,4.88,60.96,12.95
33,18.03,3.69,65.04,13.25
35,14.22,3.11,67.61,15.07
37,12.85,2.51,69.38,15.26
39,10.91,3.06,69.47,16.56
41,31.38,7.85,52.8,7.97
43,26.75,6.77,57.67,8.8
45,22.46,6.5,60.59,10.44
47,19.72,5.03,64.5,10.75
49,16.95,4.12,66.95,11.97
51,13.91,3.36,69.56,13.17
53,11.16,3.26,71.16,14.42
55,9.63,2.31,72.74,15.32
57,33.15,9.61,50.7,6.55
59,27.93,8.78,56.1,7.2
61,24.2,6.77,60.16,8.88
63,21.14,5.6,64.09,9.17
65,17.36,5.37,66.87,10.4
67,14.97,4.59,69.39,11.05
69,13.19,3.3,71.39,12.12
71,10.36,2.83,73.87,12.93
73,8.99,2.23,75.24,13.54
75,8.22,1.29,75.81,14.68
77,27.83,9.07,56.65,6.46
79,23.62,8.44,60.74,7.2
81,20.37,6.44,64.27,8.93
83,17.03,5.16,68.32,9.48
85,15.59,4.26,70.44,9.71
87,12.9,2.89,73.6,10.61
89,10.54,2.68,75.39,11.4
91,9.45,2.45,76.2,11.9
93,8.15,1.73,76.69,13.43
95,29.23,11.61,53.57,5.59
97,25.7,9.24,58.17,6.88
99,21.99,7.93,62.9,7.19
101,18.48,6.56,67.38,7.58
103,16.49,5.85,69.55,8.12
105,14.71,4.37,72.1,8.82
107,11.6,3.78,74.66,9.97
109,10.71,2.85,76.45,9.99
111,8.55,2.23,78.43,10.79
113,6.74,1.71,80.2,11.35
115,6.71,1.81,79.97,11.52
117,25.18,10.9,58.6,5.33
119,21.56,9.28,63.61,5.55
121,18.13,7.04,67.98,6.85
123,15.46,6.15,70.8,7.59
125,13.53,5.38,73.02,8.07
127,11.49,4.56,75.84,8.11
129,10.03,3.7,76.97,9.29
131,7.84,2.8,79.74,9.63
133,7.51,2.08,80.59,9.82
135,6.61,1.67,81.86,9.87
137,24.81,11.24,59.04,4.91
139,20.83,9.71,63.9,5.56
141,18.19,8.2,67.67,5.94
143,15.63,6.11,71.97,6.29
145,13.16,6.17,73.68,6.99
147,11.27,4.65,76.49,7.59
149,9.76,4.22,77.91,8.12
151,8.44,2.41,81.11,8.04
153,7.18,2.58,81.58,8.67
155,6.94,2.31,81.88,8.86
157,6.27,1.71,83.08,8.95
159,21.95,10.35,63.09,4.61
161,17.53,8.87,68.3,5.3
163,15.25,7.08,72.05,5.63
165,13.29,6.06,73.93,6.73
167,11.74,5.08,76.35,6.83
169,9.69,4.38,78.62,7.31
171,7.88,3.51,81.19,7.42
173,7.47,2.85,82.45,7.24
175,6.4,2.06,83.63,7.92
177,5.86,1.63,84.28,8.22
179,20.99,12.02,62.85,4.14
181,18.57,10.44,66.7,4.29
183,15.63,7.96,71.39,5.01
185,12.48,7.42,74.43,5.67
187,11.78,5.59,76.69,5.93
189,9.16,5.0,79.41,6.43
191,7.56,4.09,81.65,6.71
193,6.39,3.23,83.84,6.54
195,5.93,2.93,83.99,7.16
197,5.85,1.58,84.99,7.58
199,6.14,1.13,85.39,7.34
201,17.07,11.25,67.51,4.17
203,14.9,9.5,71.3,4.3
205,13.47,7.33,74.52,4.67
207,10.84,6.4,77.73,5.03
209,9.2,5.08,80.23,5.49
211,7.85,4.4,82.18,5.57
213,7.12,3.34,83.77,5.78
215,6.74,3.0,84.25,6.01
217,5.1,2.07,86.12,6.72
219,4.71,1.57,86.91,6.81
221,16.06,13.09,66.13,4.72
223,13.97,10.34,71.51,4.18
225,12.69,8.46,74.62,4.23
227,11.55,6.27,76.97,5.21
229,8.97,5.98,80.15,4.9
231,8.81,4.94,81.84,4.41
233,7.2,4.33,83.55,4.92
235,6.04,2.99,85.57,5.4
237,5.71,2.7,85.65,5.94
239,4.56,1.97,87.36,6.11
241,5.01,1.64,87.44,5.9
243,13.23,10.36,72.0,4.41
245,11.57,8.8,75.64,3.99
247,9.73,6.95,79.06,4.26
249,8.77,5.65,81.58,4.0
251,7.71,4.46,83.22,4.61
253,6.72,3.65,85.39,4.24
255,5.51,3.84,85.35,5.3
257,4.82,1.9,88.08,5.19
259,5.75,1.62,87.46,5.16
261,12.66,12.19,71.33,3.82
263,11.28,8.9,75.88,3.93
265,9.66,8.14,78.98,3.22
267,8.6,6.6,81.2,3.59
269,7.22,5.08,83.57,4.13
271,6.53,4.5,84.4,4.57
273,5.54,3.71,86.31,4.44
275,5.79,2.23,88.12,3.86
277,5.25,2.29,87.95,4.51
279,4.78,1.79,89.16,4.26
281,10.85,10.85,74.97,3.32
283,9.17,7.91,80.13,2.79
285,8.26,6.66,81.8,3.29
287,6.62,5.62,84.3,3.46
289,5.61,4.07,86.56,3.76
291,5.96,3.35,86.82,3.87
293,4.6,3.07,88.35,3.97
295,5.26,2.38,88.34,4.03
297,9.4,10.58,76.89,3.13
299,8.15,8.06,81.14,2.65
301,7.14,6.62,83.58,2.67
303,6.56,5.22,84.9,3.32
305,6.17,4.63,85.97,3.23
307,5.35,2.83,88.46,3.36
309,4.78,2.92,88.59,3.71
311,4.55,2.34,89.49,3.62
313,7.31,8.85,81.42,2.41
315,6.48,7.1,83.21,3.2
317,6.05,4.89,85.88,3.18
319,4.95,4.56,87.25,3.25
321,5.32,3.77,88.17,2.73
323,4.95,2.72,89.53,2.8
325,7.23,9.24,80.51,3.02
327,6.89,6.97,83.67,2.47
329,4.97,5.77,86.86,2.4
331,5.12,4.73,87.35,2.79
333,4.79,3.88,88.6,2.74
335,4.23,2.45,89.6,3.71
337,5.3,6.82,85.27,2.61
339,4.92,6.05,86.53,2.5
341,4.57,3.89,88.55,2.99
342,5.67,3.63,88.44,2.27

File: ML_3_Pd-rich_Ni-Pd-Pt-Ru_EDX.csv
Index,Ni,Pd,Pt,Ru
1,32.45,52.21,7.96,7.37
3,31.55,48.21,9.82,10.42
5,29.34,46.06,10.73,13.88
7,30.18,40.36,13.82,15.64
9,25.6,38.8,16.4,19.2
11,25.0,34.31,18.14,22.55
13,29.7,54.57,8.12,7.61
15,28.84,52.29,9.97,8.89
17,27.3,49.14,11.78,11.78
19,26.95,44.16,14.29,14.61
21,25.0,40.07,17.28,17.65
23,22.18,35.98,20.08,21.76
25,28.19,60.18,6.49,5.15
27,27.11,57.78,8.0,7.11
29,26.56,55.2,10.16,8.08
31,25.89,50.68,12.81,10.63
33,24.65,46.46,15.58,13.31
35,23.15,42.95,17.79,16.11
37,21.26,37.8,20.47,20.47
39,18.18,33.49,24.4,23.92
41,25.37,62.78,6.85,5.0
43,24.61,60.83,8.27,6.3
45,23.92,57.97,10.13,7.97
47,23.77,53.59,13.0,9.64
49,22.48,49.35,15.76,12.4
51,21.8,45.06,18.6,14.53
53,18.31,40.14,22.18,19.37
55,18.72,34.47,25.11,21.7
57,23.72,67.06,5.63,3.58
59,23.73,65.27,6.63,4.36
61,22.57,63.67,8.26,5.5
63,22.65,60.84,10.56,5.95
65,20.08,56.63,13.45,9.84
67,20.67,52.49,15.91,10.93
69,20.18,45.61,19.59,14.62
71,18.79,41.84,23.4,15.96
73,18.11,35.83,25.2,20.87
75,16.2,30.09,29.63,24.07
77,20.47,69.22,6.25,4.06
79,20.5,66.98,7.67,4.85
81,20.4,64.76,9.44,5.4
83,20.22,60.3,11.99,7.49
85,19.25,55.9,14.49,10.35
87,18.31,51.88,18.31,11.5
89,16.57,46.69,21.82,14.92
91,16.9,40.34,25.52,17.24
93,15.19,35.02,29.54,20.25
95,18.47,73.28,5.5,2.75
97,18.9,71.37,6.63,3.1
99,19.12,69.12,7.51,4.25
101,18.2,66.62,9.92,5.26
103,17.38,63.58,11.92,7.12
105,17.39,59.36,14.56,8.7
107,16.28,54.76,18.18,10.78
109,16.58,48.13,21.66,13.64
111,14.52,41.94,26.45,17.1
113,13.82,35.77,30.08,20.33
115,13.2,29.95,34.01,22.84
117,16.71,75.68,5.71,1.9
119,17.33,72.27,7.2,3.2
121,16.71,69.87,8.82,4.61
123,16.47,67.07,11.03,5.44
125,16.32,62.92,13.95,6.81
127,14.54,59.72,16.7,9.04
129,15.26,53.53,20.27,10.93
131,14.25,47.95,24.38,13.42
133,12.54,41.58,29.75,16.13
135,12.45,33.61,34.02,19.92
137,15.92,76.56,5.35,2.17
139,16.15,74.87,6.38,2.6
141,16.06,72.19,8.09,3.66
143,14.95,70.89,10.01,4.14
145,14.84,66.62,12.76,5.79
147,13.61,63.44,15.31,7.65
149,14.17,58.25,18.45,9.13
151,13.38,51.34,23.11,12.17
153,13.87,45.09,27.17,13.87
155,11.66,38.16,32.51,17.67
157,10.5,32.42,36.07,21.0
159,13.66,78.39,5.71,2.24
161,13.63,76.28,7.66,2.43
163,13.64,73.2,9.01,4.14
165,12.63,70.96,11.33,5.08
167,13.36,66.38,14.37,5.89
169,12.63,62.29,17.06,8.02
171,12.43,56.5,21.36,9.71
173,12.28,50.13,26.07,11.53
175,11.18,42.24,31.68,14.91
177,11.11,36.67,35.56,16.67
179,11.68,81.09,5.33,1.9
181,13.2,77.7,6.94,2.16
183,11.33,76.99,8.41,3.27
185,12.35,73.47,10.51,3.67
187,12.26,70.75,12.77,4.21
189,12.02,65.58,15.28,7.12
191,11.07,61.43,19.29,8.21
193,10.34,56.18,23.37,10.11
195,11.02,48.21,29.48,11.29
197,10.86,39.47,34.87,14.8
199,9.52,32.9,40.69,16.88
201,10.71,81.55,5.92,1.82
203,11.02,78.99,7.69,2.3
205,10.41,76.88,10.05,2.66
207,10.51,73.47,12.02,4.01
209,10.76,70.39,14.48,4.38
211,9.95,65.63,17.88,6.53
213,10.72,59.33,22.0,7.95
215,10.82,52.16,26.92,10.1
217,9.86,45.8,32.46,11.88
219,11.32,38.49,37.74,12.45
221,9.49,83.68,5.44,1.39
223,10.35,80.88,6.86,1.91
225,10.63,78.29,8.75,2.33
227,9.71,76.49,10.76,3.04
229,10.18,72.52,13.1,4.2
231,9.37,69.61,16.33,4.69
233,9.58,63.24,19.86,7.32
235,9.74,57.85,24.45,7.95
237,9.14,50.37,29.63,10.86
239,8.28,42.68,36.94,12.1
241,10.34,33.72,41.76,14.18
243,9.0,82.1,7.07,1.82
245,9.34,79.51,8.81,2.34
247,9.06,77.41,10.78,2.75
249,8.67,74.6,13.43,3.3
251,8.54,70.11,16.39,4.96
253,9.09,64.59,20.41,5.9
255,8.65,58.15,25.35,7.85
257,8.63,50.76,31.22,9.39
259,9.79,42.2,37.31,10.7
261,7.83,83.9,5.98,2.29
263,7.75,81.78,8.17,2.3
265,8.23,79.37,10.37,2.03
267,8.48,76.68,12.37,2.47
269,7.66,72.92,15.06,4.36
271,7.61,69.09,18.77,4.53
273,7.77,62.37,23.32,6.54
275,7.48,56.07,29.44,7.01
277,7.69,48.43,34.76,9.12
279,8.47,40.0,40.68,10.85
281,6.81,83.54,7.83,1.82
283,6.93,80.84,10.06,2.16
285,7.51,77.36,12.63,2.5
287,6.74,73.66,15.23,4.37
289,6.18,70.69,19.11,4.02
291,8.2,63.28,23.35,5.17
293,7.18,57.64,28.94,6.25
295,7.67,48.86,35.23,8.24
297,5.91,84.28,8.02,1.79
299,6.69,80.7,10.2,2.41
301,6.46,78.71,12.57,2.27
303,6.6,74.83,15.54,3.03
305,7.74,69.66,19.04,3.56
307,7.46,64.65,24.33,3.55
309,7.1,57.42,29.89,5.59
311,6.78,49.26,36.87,7.08
313,5.68,82.83,10.21,1.28
315,6.29,78.9,12.79,2.02
317,7.0,75.43,15.46,2.11
319,5.93,71.43,19.6,3.04
321,7.12,64.04,24.72,4.12
323,6.71,57.64,31.02,4.63
325,5.57,82.82,9.95,1.66
327,5.51,79.45,12.78,2.26
329,6.01,76.11,15.93,1.96
331,6.09,71.08,19.79,3.04
333,7.1,63.93,24.41,4.55
335,6.94,57.42,31.34,4.31
337,4.71,79.14,14.27,1.88
339,5.14,74.45,17.91,2.5
341,6.2,68.84,22.45,2.51
342,5.02,65.66,25.5,3.82

File: ML_4_Ni-rich_Ni-Pd-Pt-Ru_EDX.csv
Index,Ni,Pd,Pt,Ru
1,80.83,5.95,4.53,8.69
3,77.48,6.01,5.47,11.03
5,73.8,5.83,6.58,13.79
7,69.5,5.84,7.64,17.01
9,64.39,5.55,9.25,20.81
11,58.24,5.4,10.99,25.37
13,79.64,6.91,5.09,8.36
15,76.06,6.73,6.29,10.92
17,72.81,6.42,7.19,13.58
19,68.35,6.22,8.74,16.69
21,63.0,6.07,10.34,20.58
23,57.03,5.38,11.98,25.62
25,80.49,8.21,4.7,6.6
27,77.6,7.78,5.74,8.89
29,75.3,7.42,6.82,10.46
31,71.45,6.98,8.18,13.39
33,67.18,6.53,9.68,16.62
35,61.59,6.04,11.48,20.9
37,55.38,6.12,13.29,25.21
39,48.89,5.79,15.52,29.8
41,79.3,8.98,5.28,6.44
43,76.3,8.48,6.41,8.81
45,73.18,8.38,7.6,10.84
47,69.76,7.8,9.23,13.21
49,65.44,7.64,10.71,16.21
51,59.64,6.98,12.92,20.46
53,53.2,6.95,15.19,24.66
55,46.57,6.14,17.55,29.75
57,80.06,10.43,4.76,4.74
59,76.89,10.28,6.12,6.71
61,74.69,9.29,7.3,8.72
63,71.25,9.16,8.61,10.98
65,67.59,8.71,10.34,13.36
67,63.61,8.41,11.76,16.22
69,57.63,8.02,14.27,20.08
71,51.32,8.03,16.48,24.17
73,45.16,6.94,18.92,28.99
75,38.11,6.05,21.47,34.37
77,77.04,11.37,5.9,5.69
79,74.51,10.56,7.21,7.72
81,71.38,10.53,8.75,9.33
83,68.04,9.72,10.37,11.87
85,63.69,9.02,12.24,15.05
87,58.14,9.33,14.43,18.09
89,52.73,8.48,17.06,21.74
91,45.89,8.03,20.04,26.03
93,39.14,7.19,22.86,30.81
95,76.85,13.32,5.45,4.38
97,74.56,12.87,6.63,5.94
99,72.08,12.48,8.07,7.37
101,69.53,11.39,9.68,9.41
103,65.81,10.92,11.43,11.85
105,61.45,10.52,13.5,14.53
107,56.7,9.36,15.97,17.97
109,51.07,9.01,18.41,21.51
111,44.16,8.2,21.64,25.99
113,37.96,7.67,24.18,30.2
115,32.57,6.24,26.81,34.37
117,74.11,14.36,6.51,5.02
119,71.18,13.95,8.08,6.79
121,69.4,12.81,9.54,8.25
123,66.09,12.14,11.47,10.29
125,61.67,12.03,13.57,12.73
127,56.44,11.46,16.24,15.86
129,51.59,10.4,18.73,19.28
131,45.92,9.52,22.17,22.39
133,39.08,9.11,25.03,26.78
135,33.59,7.04,28.5,30.86
137,72.51,16.5,6.55,4.45
139,70.59,15.81,8.05,5.55
141,67.78,14.95,9.61,7.66
143,64.86,14.08,11.76,9.3
145,61.25,13.1,13.98,11.68
147,56.43,13.12,16.46,13.99
149,51.52,11.67,19.16,17.65
151,46.44,11.31,22.32,19.94
153,40.1,9.98,25.43,24.5
155,33.33,8.21,29.09,29.36
157,28.8,6.74,31.31,33.14
159,69.77,17.38,7.96,4.88
161,66.71,16.97,9.92,6.4
163,64.42,15.69,11.84,8.04
165,60.23,14.93,14.43,10.4
167,56.17,14.56,16.56,12.7
169,51.68,13.07,19.4,15.85
171,46.03,12.63,22.41,18.93
173,40.68,10.91,26.19,22.22
175,36.12,9.34,29.55,24.99
177,29.37,7.96,33.08,29.59
179,67.69,20.07,8.1,4.14
181,65.55,18.97,9.88,5.6
183,63.25,17.81,11.92,7.02
185,59.93,16.9,14.41,8.77
187,55.45,16.46,16.9,11.2
189,52.08,15.18,19.39,13.34
191,46.44,14.14,22.68,16.74
193,39.72,13.03,26.52,20.72
195,35.54,10.96,30.11,23.39
197,29.46,9.54,33.9,27.1
199,25.73,7.77,37.21,29.28
201,64.14,21.46,9.6,4.8
203,61.65,20.34,12.14,5.87
205,58.69,19.45,14.23,7.63
207,54.11,18.63,17.15,10.11
209,51.12,17.58,19.84,11.47
211,46.3,16.27,23.19,14.24
213,40.57,14.77,27.45,17.21
215,36.48,12.92,30.5,20.1
217,31.02,11.44,34.66,22.88
219,25.51,9.25,37.83,27.42
221,59.69,25.97,9.68,4.66
223,59.55,23.12,11.81,5.53
225,57.05,22.27,14.14,6.54
227,53.85,20.84,17.21,8.1
229,50.05,19.9,19.85,10.2
231,45.01,18.62,23.07,13.3
233,40.2,17.38,26.62,15.8
235,35.78,14.87,30.77,18.57
237,30.99,12.97,34.77,21.28
239,26.15,10.2,38.92,24.72
241,22.74,8.95,42.41,25.9
243,56.32,25.97,12.99,4.72
245,53.3,24.41,15.68,6.61
247,50.27,23.21,18.55,7.97
249,47.06,20.95,21.55,10.43
251,42.2,20.1,25.02,12.68
253,38.54,17.99,29.07,14.4
255,32.92,15.89,33.51,17.68
257,29.09,13.49,37.62,19.8
259,23.91,11.66,41.07,23.36
261,53.29,29.34,12.59,4.78
263,50.68,27.88,15.51,5.93
265,48.81,25.28,18.51,7.41
267,44.95,24.25,21.46,9.34
269,41.58,22.53,25.56,10.33
271,37.53,20.03,29.29,13.15
273,32.53,18.45,33.53,15.49
275,28.4,15.6,38.16,17.83
277,25.01,12.21,42.02,20.76
279,21.16,10.84,46.23,21.77
281,47.32,29.95,16.68,6.05
283,44.55,28.1,20.17,7.18
285,41.8,26.03,23.19,8.99
287,37.67,24.88,26.81,10.64
289,34.53,21.38,32.1,11.99
291,30.87,18.83,35.6,14.7
293,27.3,17.25,40.31,15.15
295,23.74,13.43,44.72,18.11
297,44.61,32.34,17.81,5.24
299,42.06,30.12,21.6,6.21
301,38.39,28.29,24.98,8.34
303,35.6,26.04,28.77,9.59
305,32.29,22.49,33.63,11.59
307,27.39,21.05,37.94,13.62
309,24.9,16.36,43.79,14.95
311,21.13,13.8,48.12,16.95
313,37.34,33.32,22.93,6.42
315,34.69,31.13,26.89,7.29
317,32.29,27.32,31.27,9.12
319,28.61,24.31,36.02,11.05
321,25.91,21.43,40.28,12.38
323,22.77,17.97,45.34,13.92
325,34.41,34.86,24.34,6.39
327,32.03,32.03,28.37,7.56
329,29.53,28.64,33.18,8.65
331,27.18,26.17,37.34,9.31
333,24.12,21.81,42.89,11.18
335,21.98,17.88,47.48,12.67
337,28.85,32.63,31.08,7.44
339,25.46,29.65,36.37,8.51
341,23.13,25.31,41.44,10.12
342,22.8,22.8,44.14,10.27

File: ML_5_near-equiatomic_Ni-Pd-Pt-Ru_EDX.csv
Index,Ni,Pd,Pt,Ru
1,46.2,19.49,7.9,26.41
3,41.44,17.9,8.74,31.92
5,36.25,16.54,9.88,37.32
7,31.9,15.07,11.01,42.02
9,26.88,12.2,12.4,48.51
11,21.35,12.07,13.13,53.45
13,43.1,21.92,8.77,26.21
15,39.63,19.97,9.74,30.66
17,34.83,18.2,10.73,36.24
19,30.97,16.05,12.05,40.93
21,25.91,14.27,13.5,46.32
23,22.1,12.71,13.98,51.21
25,45.85,26.02,7.88,20.24
27,41.77,24.36,9.25,24.63
29,38.52,21.24,10.51,29.74
31,33.23,20.18,11.9,34.69
33,29.34,18.04,12.91,39.7
35,24.99,15.21,14.49,45.31
37,20.15,13.44,15.66,50.75
39,15.93,12.13,16.64,55.31
41,44.24,28.62,8.71,18.42
43,40.29,26.63,9.62,23.46
45,36.29,23.98,11.05,28.68
47,32.43,21.54,12.56,33.47
49,28.17,19.42,14.22,38.2
51,23.83,16.99,15.57,43.61
53,18.85,14.79,17.2,49.16
55,15.15,11.94,18.44,54.47
57,43.81,33.47,8.23,14.49
59,41.39,31.11,9.18,18.32
61,37.65,28.62,10.91,22.83
63,34.17,26.08,12.03,27.73
65,30.32,23.95,13.71,32.02
67,26.86,20.66,15.22,37.27
69,23.15,18.06,17.07,41.72
71,18.46,16.0,18.5,47.03
73,14.27,14.09,20.11,51.53
75,11.94,11.27,20.91,55.88
77,40.07,35.15,8.9,15.87
79,37.23,32.23,10.68,19.87
81,34.77,29.7,11.9,23.63
83,31.57,26.87,13.68,27.89
85,26.34,24.32,15.49,33.86
87,22.9,21.49,17.41,38.2
89,19.11,19.14,18.69,43.06
91,16.12,15.84,20.51,47.53
93,12.1,13.75,22.25,51.9
95,40.39,40.88,7.72,11.01
97,37.71,37.96,9.6,14.74
99,35.88,34.44,11.34,18.35
101,32.46,31.73,12.75,23.07
103,28.61,29.33,14.51,27.55
105,25.4,26.86,16.41,31.33
107,21.51,23.48,18.56,36.45
109,18.27,20.86,19.98,40.88
111,15.05,16.74,21.93,46.27
113,11.22,14.75,23.96,50.07
115,9.2,12.02,25.22,53.56
117,36.09,42.13,9.31,12.47
119,34.21,39.2,10.99,15.61
121,31.22,35.99,12.84,19.95
123,28.7,32.66,14.64,24.01
125,25.71,29.67,16.6,28.01
127,22.48,26.57,18.29,32.66
129,18.73,23.71,20.42,37.14
131,15.92,20.63,22.25,41.2
133,13.05,16.52,23.81,46.62
135,10.65,13.54,26.23,49.58
137,34.79,46.12,8.79,10.29
139,33.51,43.09,10.02,13.38
141,30.69,39.98,12.37,16.96
143,27.82,36.9,14.29,20.98
145,25.64,33.83,16.22,24.3
147,22.78,30.52,18.16,28.54
149,19.3,26.81,20.52,33.37
151,16.17,24.07,22.68,37.08
153,13.52,20.07,24.53,41.88
155,10.8,16.67,26.9,45.62
157,9.28,13.99,28.47,48.26
159,31.52,47.73,9.8,10.95
161,30.07,44.17,11.94,13.82
163,27.52,40.99,14.13,17.36
165,25.05,37.52,15.99,21.44
167,22.34,34.6,18.27,24.79
169,18.73,30.76,20.62,29.89
171,16.55,27.41,22.64,33.4
173,13.04,23.89,25.26,37.81
175,11.2,19.56,27.44,41.8
177,9.2,15.91,29.46,45.42
179,29.8,51.93,9.06,9.21
181,28.59,47.93,11.48,12.0
183,26.77,45.12,13.61,14.5
185,24.06,41.66,16.0,18.29
187,21.66,38.95,18.15,21.23
189,19.35,34.61,20.52,25.52
191,16.16,31.66,23.02,29.16
193,13.51,26.39,25.66,34.44
195,11.22,22.44,28.27,38.07
197,9.57,18.48,30.29,41.66
199,7.31,15.42,33.02,44.25
201,27.33,52.35,10.81,9.51
203,25.35,49.03,12.87,12.75
205,23.52,45.82,15.26,15.4
207,21.47,41.9,17.47,19.17
209,18.51,38.69,20.22,22.58
211,16.42,35.01,22.69,25.89
213,13.51,30.77,25.1,30.62
215,11.71,26.73,27.96,33.6
217,9.94,22.11,30.99,36.96
219,7.81,17.97,33.44,40.79
221,24.75,56.96,9.77,8.52
223,24.0,53.07,12.24,10.69
225,21.91,50.35,14.81,12.93
227,21.0,45.97,17.19,15.85
229,18.57,42.68,19.6,19.15
231,15.06,39.02,22.65,23.27
233,13.57,35.07,25.6,25.76
235,11.26,29.91,28.44,30.39
237,9.58,25.01,31.5,33.92
239,8.49,20.52,34.31,36.68
241,7.13,17.19,37.14,38.54
243,20.86,56.01,12.92,10.2
245,20.33,51.94,15.45,12.27
247,18.75,48.59,17.72,14.93
249,16.45,45.8,20.65,17.11
251,14.87,41.16,23.69,20.28
253,12.65,36.71,26.7,23.94
255,10.42,32.24,29.36,27.98
257,8.59,26.81,33.47,31.14
259,7.2,22.23,36.23,34.34
261,19.43,61.22,11.43,7.91
263,18.36,57.09,14.79,9.77
265,16.76,53.56,17.06,12.63
267,15.76,49.21,19.96,15.07
269,14.29,45.22,22.88,17.6
271,13.34,40.09,25.72,20.85
273,11.04,35.88,29.45,23.63
275,9.62,30.95,32.8,26.62
277,8.51,25.82,36.2,29.47
279,6.51,20.89,40.1,32.49
281,16.49,58.77,15.18,9.56
283,15.34,55.6,17.7,11.36
285,14.42,51.37,20.72,13.49
287,12.31,48.03,23.19,16.47
289,11.13,42.38,26.75,19.74
291,9.98,38.32,29.91,21.8
293,8.23,32.95,33.9,24.92
295,6.57,27.01,38.5,27.92
297,14.62,61.89,15.08,8.41
299,13.63,57.48,18.23,10.66
301,12.67,53.9,21.11,12.32
303,10.91,50.1,24.64,14.34
305,9.57,45.13,27.74,17.56
307,9.0,39.36,32.13,19.51
309,7.67,33.63,36.08,22.62
311,7.18,27.79,40.25,24.79
313,13.0,59.95,17.93,9.11
315,10.85,56.19,21.41,11.55
317,9.55,51.17,24.73,14.54
319,9.14,46.71,28.1,16.06
321,7.74,41.73,32.43,18.1
323,7.41,35.21,37.38,20.0
325,10.71,62.05,18.81,8.44
327,9.86,57.83,22.27,10.04
329,8.76,53.26,25.71,12.28
331,8.75,48.09,29.18,13.98
333,7.77,42.56,33.74,15.93
335,7.22,36.2,38.06,18.52
337,8.74,57.88,24.08,9.3
339,7.62,52.9,27.86,11.61
341,8.28,46.69,31.86,13.17
342,6.62,44.26,34.77,14.36