Folder: HEA_electrocatalysis_ML/Burgel/15453660/Composition_Dataset (part 3)

File: ML_11_near-equiatomic_Ir-Pd-Pt-Ru_EDX.csv
Index,Ir,Pd,Pt,Ru
1,54.64,12.6,7.36,25.39
3,50.17,11.41,7.94,30.48
5,46.76,9.59,8.76,34.88
7,41.98,8.11,9.8,40.1
9,37.1,7.54,10.76,44.6
11,32.04,6.21,11.82,49.93
13,53.12,13.85,7.79,25.24
15,48.92,12.36,9.13,29.6
17,44.46,10.91,9.82,34.81
19,40.23,9.35,11.16,39.25
21,35.83,8.02,12.25,43.9
23,31.4,7.36,12.82,48.42
25,55.22,17.03,7.67,20.08
27,50.75,15.55,8.85,24.85
29,46.69,13.69,10.29,29.34
31,42.94,11.94,11.33,33.78
33,38.87,10.8,11.97,38.36
35,35.37,8.94,13.1,42.59
37,29.89,7.57,14.09,48.44
39,25.67,6.07,15.42,52.84
41,51.78,19.2,8.83,20.19
43,48.66,16.89,9.94,24.51
45,44.87,15.29,11.15,28.69
47,40.84,13.5,12.41,33.25
49,37.95,11.28,13.37,37.4
51,33.61,9.74,14.64,42.01
53,28.9,8.75,15.43,46.91
55,25.02,6.89,16.46,51.64
57,54.1,21.83,8.12,15.95
59,50.25,20.49,9.7,19.56
61,45.99,19.14,10.95,23.92
63,43.05,16.58,12.15,28.21
65,39.64,14.15,13.42,32.8
67,36.07,12.59,14.71,36.63
69,32.1,10.6,16.08,41.22
71,28.48,8.38,17.14,46.0
73,23.79,7.38,17.96,50.87
75,18.95,5.75,19.56,55.73
77,49.12,23.29,9.95,17.64
79,45.81,21.51,11.24,21.44
81,42.38,19.7,12.67,25.25
83,39.11,16.91,14.16,29.81
85,36.39,14.53,15.43,33.66
87,32.93,12.29,16.55,38.23
89,29.01,10.53,18.05,42.41
91,24.74,9.23,19.1,46.93
93,20.6,7.71,20.5,51.19
95,48.9,28.56,8.98,13.56
97,46.67,25.5,10.65,17.18
99,43.92,23.44,12.22,20.42
101,40.75,20.89,13.53,24.83
103,37.68,18.78,15.11,28.43
105,34.43,16.23,16.59,32.75
107,30.87,14.04,18.24,36.85
109,27.41,11.59,19.62,41.38
111,24.06,9.51,20.91,45.52
113,19.7,7.13,22.5,50.66
115,16.09,6.55,23.48,53.89
117,45.94,28.88,10.64,14.54
119,42.49,26.97,12.32,18.22
121,40.22,24.24,13.94,21.6
123,37.39,21.36,15.75,25.5
125,34.19,18.8,17.4,29.61
127,31.82,16.16,18.53,33.49
129,28.74,13.7,20.24,37.32
131,24.61,10.75,22.13,42.51
133,19.59,9.27,23.54,47.6
135,16.72,7.54,24.96,50.79
137,44.03,32.38,10.67,12.92
139,42.15,29.95,12.28,15.61
141,39.05,27.33,14.47,19.15
143,37.15,24.51,15.81,22.53
145,34.33,21.66,17.48,26.53
147,31.95,18.21,19.15,30.69
149,28.41,16.05,20.78,34.76
151,24.51,13.32,23.11,39.06
153,21.38,10.3,24.87,43.45
155,17.19,8.72,26.22,47.87
157,14.05,7.13,27.5,51.32
159,41.26,32.89,12.7,13.15
161,38.47,31.12,14.29,16.12
163,36.18,27.84,16.25,19.73
165,33.83,24.49,18.11,23.58
167,31.17,21.67,19.7,27.45
169,28.55,19.31,21.18,30.96
171,25.67,16.01,23.02,35.3
173,21.96,13.3,25.28,39.46
175,17.87,10.63,28.11,43.39
177,15.47,7.73,29.03,47.78
179,38.5,37.73,12.4,11.38
181,37.74,33.84,14.11,14.32
183,35.12,30.79,16.46,17.63
185,33.61,27.28,18.31,20.8
187,30.68,24.75,20.04,24.53
189,28.59,21.68,21.69,28.04
191,24.94,18.94,23.83,32.29
193,22.04,14.97,26.35,36.64
195,18.94,12.96,28.06,40.04
197,15.31,9.92,30.05,44.72
199,12.69,7.92,32.35,47.03
201,34.9,38.01,14.6,12.49
203,33.24,34.97,16.73,15.06
205,31.69,31.27,18.6,18.44
207,29.54,28.44,20.22,21.81
209,27.86,24.97,22.05,25.12
211,24.69,21.84,24.33,29.14
213,22.03,18.85,26.64,32.49
215,18.51,14.86,29.46,37.17
217,15.93,12.06,31.6,40.41
219,12.39,9.53,33.76,44.32
221,32.39,42.78,14.09,10.74
223,32.05,38.26,16.87,12.83
225,29.87,35.33,18.86,15.93
227,28.22,31.93,20.98,18.87
229,26.25,28.15,23.1,22.5
231,24.43,24.63,25.37,25.57
233,20.88,21.63,27.71,29.78
235,18.83,17.96,29.89,33.33
237,15.68,14.18,32.64,37.5
239,13.88,11.0,34.7,40.42
241,10.88,8.71,36.98,43.42
243,28.93,41.14,17.66,12.27
245,27.48,37.44,19.96,15.13
247,26.07,33.97,22.18,17.78
249,24.68,30.4,23.78,21.14
251,22.22,26.14,26.97,24.67
253,19.73,22.59,29.06,28.62
255,16.81,18.74,32.59,31.86
257,15.4,14.91,34.64,35.04
259,12.47,11.44,37.76,38.34
261,26.57,46.4,16.74,10.29
263,25.23,42.04,19.89,12.84
265,24.29,38.1,22.51,15.1
267,22.78,34.28,24.85,18.09
269,21.31,30.34,27.44,20.91
271,19.27,25.72,29.87,25.14
273,17.11,22.28,32.15,28.47
275,14.47,17.78,36.06,31.69
277,12.61,14.2,38.85,34.34
279,10.31,9.9,41.82,37.98
281,22.62,44.56,21.0,11.82
283,21.3,40.92,23.41,14.37
285,20.29,36.32,25.63,17.76
287,18.97,32.32,29.02,19.68
289,17.24,27.74,31.71,23.32
291,15.11,22.64,35.55,26.7
293,13.74,19.01,37.92,29.33
295,11.98,13.97,40.94,33.11
297,20.74,46.43,21.56,11.28
299,19.04,42.26,24.7,14.0
301,18.0,38.34,28.03,15.64
303,17.37,33.56,30.52,18.55
305,15.76,29.06,33.81,21.37
307,13.56,23.69,37.55,25.19
309,12.72,18.75,40.84,27.68
311,10.81,14.82,44.26,30.11
313,17.44,44.39,25.7,12.47
315,16.95,39.97,28.39,14.69
317,15.85,35.98,31.38,16.79
319,14.02,30.38,35.79,19.8
321,13.41,24.63,39.61,22.35
323,11.58,19.36,43.46,25.6
325,15.22,46.41,26.71,11.66
327,14.9,41.84,29.43,13.83
329,13.16,36.61,34.06,16.18
331,13.19,31.08,37.24,18.5
333,11.89,25.34,41.62,21.14
335,10.31,19.38,46.29,24.02
337,12.76,39.67,33.71,13.86
339,13.13,34.16,37.09,15.62
341,11.78,27.77,42.63,17.82
342,10.61,25.37,44.74,19.28

File: ML_12_Pt-rich_Cu-Pd-Pt-Ru_EDX.csv
Index,Cu,Pd,Pt,Ru
1,11.32,18.61,56.17,13.9
3,9.33,16.4,59.63,14.64
5,8.91,11.47,62.75,16.86
7,6.6,10.63,63.85,18.92
9,4.81,8.26,67.52,19.41
11,3.68,7.43,68.51,20.38
13,10.51,19.12,58.56,11.81
15,8.56,15.72,61.48,14.24
17,7.83,13.97,63.12,15.08
19,6.42,11.33,66.02,16.23
21,5.46,9.17,67.7,17.67
23,4.24,7.26,69.27,19.23
25,10.96,23.9,55.68,9.46
27,9.26,20.68,59.3,10.76
29,7.68,17.48,62.12,12.72
31,7.01,12.46,66.97,13.56
33,5.53,11.07,68.51,14.89
35,4.6,8.58,71.12,15.69
37,3.65,7.87,70.83,17.65
39,3.46,4.92,72.22,19.4
41,9.96,24.27,57.51,8.27
43,8.24,20.79,61.2,9.77
45,7.52,17.9,63.23,11.35
47,6.62,12.96,65.84,14.58
49,4.66,12.27,68.53,14.55
51,3.65,8.58,72.81,14.96
53,3.11,7.58,73.62,15.69
55,3.57,6.0,73.45,16.97
57,9.55,30.91,52.17,7.37
59,8.37,24.7,59.27,7.66
61,6.14,21.61,62.34,9.91
63,6.34,17.98,64.41,11.27
65,5.64,14.19,68.12,12.06
67,5.54,10.24,70.74,13.48
69,3.19,9.27,71.81,15.73
71,3.17,7.48,74.38,14.97
73,2.29,6.23,75.74,15.74
75,1.93,5.64,76.29,16.13
77,7.86,27.76,57.83,6.55
79,6.75,23.9,61.92,7.44
81,6.0,20.01,64.49,9.5
83,4.86,16.15,68.9,10.09
85,3.23,13.23,70.84,12.7
87,3.63,10.65,72.96,12.77
89,3.24,8.27,74.55,13.93
91,1.84,7.0,77.08,14.08
93,1.97,4.34,78.26,15.43
95,8.35,33.57,52.78,5.3
97,6.79,28.31,59.02,5.87
99,5.72,23.95,63.04,7.29
101,4.88,20.14,65.26,9.71
103,4.2,16.71,68.97,10.12
105,3.7,13.59,71.82,10.9
107,3.81,11.21,73.53,11.45
109,3.25,8.54,75.68,12.53
111,2.56,6.46,77.33,13.66
113,2.01,5.02,78.06,14.91
115,,,,
117,6.1,31.94,56.71,5.25
119,5.34,27.5,61.42,5.74
121,5.29,23.05,64.54,7.12
123,4.0,18.41,68.57,9.02
125,4.37,15.85,70.14,9.63
127,2.93,13.24,72.79,11.05
129,2.8,9.5,76.21,11.5
131,2.4,7.29,78.09,12.22
133,1.95,5.4,79.39,13.27
135,1.87,4.9,80.01,13.21
137,7.07,34.02,54.64,4.27
139,5.83,28.66,60.39,5.12
141,5.39,23.55,63.59,7.48
143,3.24,21.28,67.96,7.52
145,4.36,16.24,71.53,7.87
147,2.58,13.97,73.69,9.76
149,2.3,11.28,75.47,10.95
151,1.89,8.69,78.38,11.04
153,1.6,5.66,80.93,11.81
155,1.27,5.22,81.43,12.08
157,0.0,4.03,82.72,13.25
159,4.92,31.09,58.59,5.4
161,4.65,27.33,62.22,5.8
163,3.66,23.3,66.59,6.45
165,3.24,19.53,70.33,6.9
167,2.11,16.13,73.86,7.89
169,2.45,13.23,75.79,8.53
171,1.29,10.27,78.82,9.61
173,1.68,7.67,80.66,9.98
175,1.17,5.95,81.73,11.16
177,0.0,4.28,83.31,12.42
179,6.25,33.95,55.84,3.96
181,3.26,29.24,62.94,4.55
183,3.54,25.53,65.93,5.0
185,3.11,20.43,70.45,6.01
187,2.46,17.09,72.88,7.57
189,1.97,14.27,75.78,7.98
191,2.47,11.77,77.23,8.53
193,1.34,8.28,80.86,9.52
195,0.0,6.23,83.98,9.79
197,0.0,4.58,84.15,11.27
199,0.0,4.23,83.78,11.99
201,3.92,31.51,60.97,3.6
203,3.71,27.52,65.14,3.62
205,2.83,23.58,68.59,4.99
207,2.87,19.25,71.33,6.54
209,1.56,16.16,74.44,7.84
211,2.14,12.63,78.01,7.22
213,1.45,9.66,80.99,7.89
215,0.0,7.52,83.43,9.05
217,1.47,6.14,82.98,9.41
219,0.0,4.36,85.48,10.16
221,3.55,35.6,58.43,2.42
223,2.58,29.76,63.18,4.48
225,2.34,24.55,68.36,4.75
227,2.06,21.14,71.57,5.23
229,1.88,17.8,74.97,5.35
231,1.6,13.38,78.33,6.69
233,1.25,10.65,80.23,7.88
235,1.34,8.84,82.13,7.68
237,0.0,6.81,84.54,8.65
239,0.0,4.56,86.8,8.64
241,1.74,3.18,86.99,8.1
243,2.78,29.59,64.07,3.57
245,2.81,24.57,68.22,4.4
247,2.17,20.82,71.77,5.24
249,2.62,16.92,75.41,5.06
251,1.22,14.03,78.78,5.97
253,0.0,10.65,82.95,6.4
255,0.0,8.53,83.83,7.64
257,0.0,6.18,86.21,7.61
259,1.54,4.81,85.81,7.85
261,2.8,31.91,62.14,3.14
263,2.05,27.26,67.36,3.33
265,1.6,22.36,71.82,4.21
267,2.32,18.73,75.1,3.85
269,1.63,15.59,77.09,5.7
271,1.44,12.58,80.74,5.25
273,0.0,9.58,84.45,5.96
275,1.12,6.76,85.71,6.41
277,0.0,5.72,86.89,7.4
279,0.0,3.68,89.69,6.64
281,1.4,27.05,69.01,2.54
283,1.96,22.8,72.17,3.08
285,0.0,18.95,77.08,3.97
287,1.09,14.61,79.63,4.67
289,0.0,12.31,82.42,5.28
291,0.0,9.21,85.35,5.45
293,0.0,6.74,87.44,5.82
295,0.0,5.09,89.34,5.57
297,1.77,27.01,68.78,2.44
299,1.32,22.48,73.5,2.7
301,0.0,19.18,77.48,3.34
303,1.9,15.25,78.79,4.06
305,1.08,11.54,83.32,4.07
307,0.0,9.62,84.99,5.38
309,0.0,7.31,86.99,5.7
311,0.0,5.15,89.77,5.07
313,1.44,22.5,73.43,2.63
315,1.57,17.97,77.44,3.02
317,0.0,15.07,81.42,3.51
319,1.13,11.39,83.62,3.87
321,0.0,8.95,87.68,3.37
323,0.0,6.69,88.85,4.46
325,0.0,22.45,74.67,2.87
327,1.2,17.96,78.34,2.5
329,0.0,16.02,81.0,2.98
331,0.0,11.45,84.66,3.89
333,0.0,8.71,87.93,3.36
335,0.0,6.14,89.53,4.33
337,0.0,16.17,81.57,2.26
339,0.0,12.6,84.43,2.97
341,0.0,9.83,87.03,3.14
342,1.07,8.13,87.65,3.16

File: ML_13_Cu-rich_Cu-Pd-Pt-Ru_EDX.csv
Index,Cu,Pd,Pt,Ru
1,86.01,5.62,2.1,6.27
3,83.8,5.39,2.62,8.19
5,81.05,5.22,3.35,10.38
7,78.24,5.08,3.8,12.88
9,74.77,4.64,4.47,16.11
11,69.64,4.57,5.66,20.13
13,84.56,6.56,2.32,6.56
15,82.79,6.22,2.85,8.13
17,80.01,6.14,3.53,10.32
19,77.21,5.55,4.4,12.84
21,73.62,4.96,5.29,16.14
23,68.35,4.98,6.51,20.16
25,85.1,7.95,2.16,4.79
27,83.28,7.49,2.59,6.65
29,81.27,7.33,3.31,8.09
31,78.46,6.78,4.13,10.63
33,75.91,6.37,5.01,12.71
35,71.66,5.72,6.2,16.42
37,66.67,5.63,7.57,20.13
39,60.72,5.47,8.9,24.91
41,84.22,8.67,2.31,4.8
43,81.6,8.57,3.13,6.7
45,79.38,8.24,3.71,8.67
47,77.09,7.66,4.64,10.61
49,73.85,7.26,5.61,13.28
51,69.72,6.72,7.14,16.42
53,65.35,5.9,8.34,20.4
55,58.83,6.04,9.95,25.18
57,83.69,10.4,2.27,3.63
59,82.1,10.11,2.81,4.97
61,79.83,9.78,3.59,6.8
63,77.9,9.15,4.51,8.45
65,75.09,8.65,5.46,10.8
67,71.74,8.1,6.83,13.34
69,68.1,7.62,8.0,16.28
71,62.59,6.76,9.55,21.09
73,56.54,7.06,11.21,25.18
75,50.62,5.69,13.26,30.43
77,80.7,11.94,2.99,4.38
79,79.0,11.42,3.76,5.81
81,76.77,10.87,4.47,7.89
83,74.81,9.69,5.4,10.1
85,71.6,9.27,6.62,12.51
87,68.05,9.13,8.12,14.7
89,63.6,7.8,9.76,18.84
91,57.48,7.87,11.75,22.91
93,51.56,7.04,13.5,27.9
95,79.97,14.12,2.65,3.26
97,78.76,13.35,3.23,4.66
99,77.24,12.8,4.24,5.73
101,75.32,11.8,5.12,7.76
103,73.0,11.14,6.38,9.48
105,69.65,10.76,7.6,12.0
107,65.79,10.06,9.27,14.88
109,61.32,9.01,11.12,18.55
111,55.39,8.56,13.24,22.81
113,49.35,7.65,15.43,27.58
115,,,,
117,77.9,14.86,3.23,4.01
119,75.92,14.51,4.37,5.2
121,73.93,14.07,5.21,6.79
123,72.03,13.11,6.33,8.53
125,68.97,12.27,7.81,10.95
127,65.36,11.2,9.48,13.96
129,61.18,10.68,11.1,17.03
131,56.13,9.45,13.34,21.08
133,49.46,9.04,15.77,25.72
135,44.13,7.5,18.47,29.9
137,75.37,17.66,3.39,3.58
139,74.96,16.31,4.2,4.54
141,72.09,16.46,5.53,5.91
143,70.73,14.92,6.71,7.63
145,67.62,14.6,7.93,9.86
147,64.84,13.45,9.73,11.98
149,60.9,12.4,11.38,15.32
151,55.68,11.29,13.91,19.12
153,49.98,10.31,16.5,23.22
155,44.48,9.3,18.8,27.42
157,39.5,7.67,21.18,31.66
159,72.22,19.47,4.55,3.76
161,70.9,18.42,5.53,5.15
163,68.98,17.41,6.8,6.8
165,66.85,16.41,8.08,8.66
167,63.26,15.4,9.92,11.43
169,60.05,14.05,11.94,13.96
171,55.69,12.82,14.15,17.34
173,51.01,11.38,16.87,20.74
175,45.25,10.34,19.57,24.85
177,39.86,8.94,22.36,28.84
179,70.23,21.75,4.48,3.54
181,68.66,20.97,5.56,4.81
183,67.12,19.91,7.0,5.97
185,64.93,18.93,8.38,7.76
187,62.54,17.51,10.15,9.79
189,58.98,16.59,12.0,12.42
191,55.83,15.67,14.2,14.3
193,50.17,14.2,16.62,19.01
195,45.44,12.1,20.23,22.22
197,39.33,10.8,22.84,27.03
199,35.28,8.77,25.56,30.39
201,66.16,24.19,5.72,3.93
203,65.04,22.2,7.18,5.58
205,63.38,21.35,8.35,6.91
207,61.29,19.92,10.29,8.5
209,58.2,18.93,12.1,10.77
211,54.35,17.52,14.88,13.25
213,49.18,16.28,17.65,16.89
215,44.07,14.45,20.64,20.85
217,38.85,12.05,24.14,24.96
219,35.42,10.09,26.61,27.89
221,63.35,27.35,5.63,3.67
223,62.37,25.81,6.81,5.0
225,61.7,23.97,8.57,5.75
227,57.96,23.29,10.56,8.19
229,55.94,22.03,12.32,9.71
231,52.0,20.81,15.06,12.13
233,49.12,18.11,17.7,15.07
235,44.12,15.77,21.49,18.61
237,39.22,13.94,24.17,22.67
239,34.91,11.21,27.55,26.33
241,,,,
243,58.82,28.6,7.97,4.61
245,58.11,26.33,9.8,5.76
247,55.08,25.65,11.93,7.34
249,52.22,24.32,13.99,9.47
251,49.43,22.14,16.49,11.94
253,44.9,20.77,19.68,14.66
255,40.77,17.91,23.27,18.05
257,36.56,15.11,26.83,21.51
259,31.89,12.77,30.05,25.29
261,55.44,32.5,7.84,4.22
263,53.88,30.87,9.94,5.31
265,52.93,29.27,12.12,5.68
267,50.68,27.21,14.46,7.65
269,47.16,25.37,17.22,10.26
271,43.53,22.76,20.27,13.45
273,40.01,20.21,23.88,15.9
275,36.51,17.67,27.78,18.04
277,30.72,15.14,31.58,22.56
279,27.63,12.7,34.2,25.47
281,49.74,33.76,11.13,5.37
283,48.08,32.41,13.74,5.77
285,46.32,30.18,16.01,7.49
287,42.72,28.23,19.0,10.06
289,40.16,24.76,22.4,12.69
291,36.93,21.14,26.44,15.49
293,33.11,18.73,29.65,18.51
295,28.32,16.86,34.24,20.57
297,45.99,36.95,11.72,5.35
299,44.56,34.18,15.09,6.16
301,43.1,31.52,17.85,7.53
303,39.45,29.61,20.78,10.16
305,36.92,26.7,24.25,12.13
307,34.26,23.06,28.85,13.83
309,31.51,18.89,32.74,16.86
311,28.22,15.62,37.09,19.07
313,41.53,36.4,16.05,6.02
315,39.16,34.62,19.32,6.9
317,36.7,31.28,22.77,9.25
319,34.5,27.88,26.91,10.71
321,31.87,23.67,30.76,13.71
323,28.04,20.53,35.61,15.81
325,37.06,40.48,16.67,5.8
327,34.9,37.52,20.77,6.8
329,33.33,33.06,24.54,9.06
331,30.44,29.98,29.51,10.07
333,29.39,24.35,33.27,12.98
335,26.14,19.94,39.36,14.56
337,30.53,37.44,24.54,7.49
339,29.94,33.05,27.99,9.02
341,27.93,27.86,33.11,11.1
342,26.55,25.47,37.05,10.94

File: ML_14_Pd-rich_Cu-Pd-Pt-Ru_EDX.csv
Index,Cu,Pd,Pt,Ru
1,8.21,75.38,6.87,9.54
3,8.81,71.12,8.92,11.14
5,7.92,66.74,10.94,14.4
7,6.97,62.44,12.56,18.03
9,6.95,56.61,14.74,21.7
11,5.25,52.87,17.41,24.47
13,7.99,76.44,7.43,8.15
15,6.14,73.98,8.87,11.01
17,7.51,68.79,10.69,13.01
19,7.45,63.68,13.21,15.65
21,6.43,57.6,15.45,20.52
23,6.36,52.17,18.06,23.41
25,6.25,82.28,6.32,5.15
27,6.54,78.66,7.02,7.77
29,5.49,74.65,9.74,10.11
31,6.92,69.99,11.1,11.99
33,6.24,65.5,13.58,14.68
35,6.28,60.11,15.85,17.77
37,5.93,52.78,18.43,22.85
39,4.57,47.18,21.61,26.64
41,6.47,82.74,6.14,4.66
43,6.21,79.85,7.55,6.39
45,5.32,76.81,9.51,8.37
47,5.99,72.21,11.42,10.38
49,5.51,65.96,14.18,14.34
51,4.26,61.57,17.52,16.65
53,4.9,55.01,20.62,19.48
55,4.17,48.86,23.15,23.82
57,5.88,86.93,4.32,2.87
59,5.8,83.27,6.04,4.89
61,5.31,81.31,7.66,5.72
63,5.04,76.94,9.7,8.31
65,5.49,73.44,11.53,9.54
67,4.23,69.34,14.7,11.73
69,3.95,62.29,18.04,15.72
71,4.22,56.44,20.6,18.74
73,2.36,50.75,24.38,22.51
75,3.66,43.14,26.07,27.13
77,4.27,86.8,5.26,3.67
79,5.32,83.21,6.42,5.05
81,4.54,80.91,8.47,6.08
83,4.32,77.01,10.85,7.82
85,4.53,72.29,13.29,9.88
87,4.28,67.21,16.43,12.08
89,4.21,61.98,18.76,15.05
91,2.69,55.07,23.29,18.94
93,2.2,48.38,26.33,23.09
95,4.27,88.94,4.27,2.52
97,4.18,87.25,5.36,3.21
99,4.02,84.98,6.97,4.02
101,4.16,81.74,8.67,5.43
103,3.88,77.99,10.56,7.57
105,4.31,72.87,13.46,9.36
107,3.16,69.13,16.38,11.32
109,3.67,62.19,20.16,13.98
111,2.9,55.85,23.01,18.24
113,2.95,49.17,27.36,20.52
115,,,,
117,3.64,88.95,4.83,2.59
119,3.96,86.51,6.15,3.38
121,3.54,84.62,7.63,4.21
123,3.92,80.95,9.66,5.46
125,3.73,77.43,11.74,7.1
127,3.72,73.2,14.49,8.6
129,2.47,67.84,17.48,12.22
131,2.7,60.71,22.06,14.52
133,2.26,53.88,25.32,18.55
135,2.37,46.69,29.71,21.22
137,3.24,90.16,4.26,2.34
139,3.51,88.36,5.43,2.71
141,2.91,86.52,7.08,3.49
143,3.46,82.87,8.91,4.77
145,2.98,80.09,10.85,6.08
147,2.72,76.21,13.25,7.81
149,3.26,71.14,16.68,8.93
151,2.95,64.85,20.07,12.13
153,2.42,57.69,24.75,15.13
155,2.24,51.01,28.92,17.82
157,0.0,44.46,34.05,21.5
159,3.02,90.15,4.62,2.2
161,3.02,87.69,6.39,2.9
163,2.66,85.95,7.86,3.52
165,2.52,82.52,9.84,5.12
167,3.04,78.91,12.05,6.0
169,3.37,73.93,14.92,7.78
171,2.39,69.56,18.14,9.91
173,2.36,62.35,23.26,12.03
175,1.99,56.07,27.81,14.13
177,2.4,48.63,31.85,17.12
179,2.39,91.44,4.3,1.88
181,2.6,89.75,5.69,1.96
183,2.5,87.67,7.12,2.71
185,2.23,84.98,8.9,3.88
187,2.15,82.46,11.05,4.34
189,2.06,78.48,13.46,5.99
191,2.43,73.04,16.79,7.75
193,2.27,67.4,20.75,9.57
195,1.94,59.16,25.5,13.39
197,1.83,50.97,30.69,16.51
199,0.0,46.4,35.24,18.36
201,1.67,91.13,5.09,2.11
203,2.14,89.14,6.5,2.22
205,2.6,86.53,8.01,2.87
207,2.03,83.92,9.83,4.22
209,1.86,80.95,12.37,4.82
211,2.38,76.4,15.55,5.67
213,2.18,71.43,18.69,7.7
215,2.06,63.55,24.15,10.24
217,2.37,56.55,28.56,12.52
219,0.0,49.29,35.29,15.42
221,1.64,92.62,4.34,1.4
223,1.99,90.46,5.67,1.88
225,2.05,88.39,7.18,2.38
227,1.78,86.13,9.01,3.08
229,2.08,82.66,11.46,3.8
231,1.4,79.14,14.14,5.32
233,1.71,74.58,17.52,6.19
235,2.13,67.67,21.63,8.57
237,0.0,62.37,26.68,10.94
239,0.0,53.18,32.81,14.01
241,4.72,39.34,40.56,15.38
243,1.94,90.47,5.81,1.78
245,1.9,88.56,7.23,2.31
247,1.62,86.43,9.15,2.79
249,1.91,83.04,11.55,3.5
251,2.06,79.9,14.11,3.93
253,1.64,75.62,17.34,5.4
255,0.0,69.9,22.44,7.66
257,0.0,62.23,28.33,9.44
259,0.0,53.84,34.37,11.79
261,1.5,92.23,5.21,1.07
263,1.63,90.08,6.49,1.81
265,1.03,88.48,8.41,2.08
267,1.26,85.8,10.46,2.47
269,0.9,82.48,13.15,3.46
271,1.16,78.43,16.16,4.25
273,0.0,73.44,20.51,6.05
275,1.15,65.94,25.56,7.35
277,1.42,58.23,30.85,9.49
279,2.77,49.85,36.69,10.69
281,1.26,90.25,6.72,1.78
283,0.9,88.28,8.59,2.23
285,1.29,85.51,10.46,2.73
287,1.31,82.56,13.02,3.11
289,1.25,78.65,16.12,3.97
291,1.26,72.65,20.18,5.92
293,0.0,66.3,26.73,6.97
295,1.66,58.04,31.99,8.31
297,0.93,90.93,6.71,1.43
299,1.08,88.45,8.67,1.79
301,1.59,85.92,10.71,1.78
303,1.38,82.35,13.23,3.04
305,1.33,78.46,16.62,3.58
307,0.0,73.96,21.61,4.42
309,1.7,66.02,26.59,5.69
311,1.51,58.73,33.33,6.43
313,0.66,88.94,8.66,1.74
315,0.91,86.44,10.63,2.02
317,1.41,82.62,13.12,2.85
319,0.0,79.97,17.17,2.86
321,1.14,73.19,21.36,4.31
323,1.24,66.17,27.08,5.51
325,0.75,89.31,8.53,1.41
327,0.84,86.8,10.91,1.45
329,0.0,84.02,13.76,2.22
331,0.0,79.78,17.41,2.8
333,0.0,74.55,22.31,3.14
335,1.8,65.83,27.62,4.75
337,0.76,85.11,12.38,1.75
339,0.0,82.02,15.42,2.56
341,0.0,76.38,20.41,3.21
342,1.61,71.25,22.71,4.43

File: ML_15_near-equiatomic_Cu-Pd-Pt-Ru_EDX.csv
Index,Cu,Pd,Pt,Ru
1,55.91,12.22,8.82,23.05
3,50.76,11.06,9.66,28.52
5,45.96,9.33,11.24,33.48
7,41.0,7.88,12.45,38.68
9,34.92,7.29,13.48,44.3
11,29.43,6.2,14.63,49.73
13,53.09,13.49,9.64,23.78
15,48.99,11.99,10.9,28.12
17,43.91,10.68,12.16,33.26
19,38.42,9.17,13.77,38.64
21,33.14,7.92,15.06,43.88
23,28.2,6.85,15.91,49.04
25,54.69,17.64,9.17,18.49
27,50.34,15.7,10.49,23.47
29,46.74,13.46,12.22,27.58
31,41.74,11.78,13.66,32.82
33,36.92,10.43,15.22,37.43
35,31.88,8.82,16.54,42.76
37,26.78,7.28,17.68,48.26
39,21.7,6.72,18.62,52.97
41,52.35,19.31,10.09,18.25
43,48.25,17.44,11.71,22.6
45,43.87,14.98,13.52,27.63
47,39.88,13.28,15.1,31.74
49,35.04,11.22,16.59,37.15
51,29.39,9.89,18.1,42.62
53,24.42,8.04,19.75,47.79
55,19.44,6.59,20.94,53.02
57,53.41,22.8,9.57,14.22
59,49.5,21.24,11.35,17.91
61,45.77,18.71,13.06,22.47
63,41.57,16.65,14.63,27.15
65,37.17,14.74,16.33,31.75
67,33.13,12.09,18.08,36.71
69,27.43,10.67,19.96,41.95
71,22.92,9.26,21.58,46.25
73,18.15,7.41,22.85,51.59
75,14.63,6.22,23.19,55.96
77,48.65,24.01,11.47,15.87
79,45.44,21.63,13.29,19.64
81,41.07,19.38,15.14,24.41
83,37.02,16.94,16.92,29.13
85,32.67,14.91,18.99,33.44
87,28.23,12.53,20.7,38.54
89,23.67,10.93,22.31,43.1
91,18.94,8.68,24.37,48.01
93,15.06,7.59,25.31,52.04
95,48.4,28.75,10.49,12.37
97,46.11,25.78,12.2,15.9
99,42.2,24.46,14.36,18.98
101,38.33,21.42,16.25,24.0
103,34.44,18.96,18.35,28.24
105,30.57,16.42,20.19,32.82
107,25.86,13.85,22.61,37.67
109,21.81,11.69,24.49,42.01
111,17.41,9.89,26.1,46.59
113,13.69,7.55,27.23,51.53
115,11.33,5.7,27.16,55.8
117,44.21,30.03,12.28,13.48
119,41.01,27.65,14.5,16.84
121,37.85,24.26,16.59,21.29
123,34.0,22.09,18.85,25.06
125,30.7,18.52,21.22,29.55
127,26.25,16.32,23.07,34.36
129,21.84,13.68,25.36,39.12
131,17.98,10.93,27.29,43.8
133,14.05,9.2,28.64,48.11
135,11.3,6.79,29.84,52.07
137,41.94,34.19,12.34,11.53
139,39.38,31.64,14.52,14.46
141,37.0,27.65,17.09,18.26
143,33.13,25.41,19.09,22.36
145,29.85,21.95,21.44,26.76
147,25.83,19.31,23.69,31.16
149,22.14,16.27,25.87,35.72
151,17.78,13.03,28.21,40.98
153,15.26,9.88,30.22,44.64
155,11.37,8.7,31.89,48.04
157,9.31,6.07,32.49,52.13
159,37.94,34.87,14.5,12.7
161,35.33,31.91,16.93,15.84
163,32.27,28.29,19.61,19.83
165,28.24,25.88,21.88,24.0
167,25.56,22.14,24.22,28.08
169,21.53,18.77,26.94,32.76
171,17.75,15.64,29.18,37.42
173,14.71,12.98,31.51,40.8
175,12.16,9.98,32.82,45.04
177,9.43,7.88,34.17,48.52
179,35.39,39.38,14.33,10.9
181,33.33,35.7,17.27,13.71
183,30.19,32.61,19.97,17.23
185,27.74,28.77,22.42,21.06
187,24.64,25.57,24.99,24.8
189,21.43,21.69,27.46,29.41
191,18.66,17.6,29.83,33.91
193,15.48,14.08,32.69,37.74
195,12.98,10.99,34.74,41.28
197,10.14,9.17,36.16,44.54
199,8.65,7.18,37.07,47.1
201,31.05,39.82,17.06,12.07
203,28.78,36.61,20.1,14.52
205,27.11,32.23,22.48,18.17
207,23.94,28.62,25.36,22.08
209,20.48,25.41,28.26,25.86
211,17.77,21.43,30.51,30.3
213,14.51,17.03,34.04,34.42
215,12.55,13.42,36.01,38.02
217,9.72,10.83,38.22,41.22
219,8.19,7.87,39.45,44.49
221,28.99,44.37,16.16,10.48
223,27.13,40.09,20.14,12.63
225,24.81,36.91,22.63,15.65
227,22.79,32.98,25.65,18.58
229,20.03,28.33,28.75,22.89
231,17.1,24.63,31.58,26.7
233,15.07,20.17,34.58,30.18
235,12.06,16.33,37.34,34.28
237,10.73,12.0,39.44,37.83
239,8.29,9.9,41.21,40.6
241,8.01,7.23,42.35,42.42
243,24.26,42.39,21.21,12.14
245,22.37,38.59,24.25,14.78
247,20.4,34.48,27.24,17.88
249,18.04,30.05,30.5,21.41
251,15.8,26.28,33.39,24.54
253,13.35,21.05,36.83,28.77
255,11.15,16.44,39.92,32.49
257,8.96,13.12,42.2,35.72
259,7.94,9.81,43.62,38.64
261,22.47,46.83,20.42,10.28
263,20.74,42.43,23.99,12.84
265,19.44,38.35,27.51,14.7
267,17.58,33.43,30.63,18.35
269,14.54,29.26,34.31,21.89
271,13.12,24.4,37.55,24.92
273,11.33,18.88,40.91,28.88
275,9.73,15.36,43.59,31.31
277,7.68,11.71,46.3,34.31
279,6.89,9.05,47.69,36.37
281,17.7,45.0,25.23,12.07
283,16.63,40.35,28.81,14.2
285,15.19,35.14,32.06,17.6
287,12.79,30.9,36.14,20.17
289,11.88,25.67,39.33,23.12
291,9.94,20.03,43.16,26.87
293,8.21,15.62,46.57,29.6
295,7.59,11.89,48.91,31.62
297,16.07,46.01,26.54,11.38
299,14.75,41.42,30.56,13.27
301,13.85,36.25,34.09,15.82
303,11.64,31.78,37.73,18.85
305,10.22,27.02,41.74,21.02
307,9.03,20.57,45.8,24.6
309,7.61,16.31,49.27,26.82
311,7.03,12.04,51.84,29.09
313,13.18,42.58,31.3,12.94
315,11.86,37.59,35.78,14.76
317,10.12,32.35,40.11,17.42
319,9.02,26.77,44.55,19.67
321,7.69,20.6,49.09,22.62
323,6.86,16.36,52.39,24.39
325,11.89,44.44,32.91,10.75
327,10.37,38.12,37.82,13.69
329,9.21,33.66,41.41,15.73
331,8.75,26.71,46.62,17.93
333,8.07,21.82,49.8,20.3
335,6.36,16.25,54.98,22.4
337,8.68,36.35,41.28,13.69
339,7.51,31.3,46.26,14.92
341,6.79,24.75,51.07,17.39
342,6.18,21.78,53.27,18.78