Folder: HEA_electrocatalysis_ML/Burgel/15453660/Composition_Dataset (part 4)

File: ML_16_Ru-rich_Cu-Pd-Pt-Ru_EDX.csv
Index,Cu,Pd,Pt,Ru
1,11.37,17.8,6.98,63.84
3,9.19,14.21,7.32,69.27
5,7.6,12.23,6.66,73.5
7,6.31,9.54,6.9,77.25
9,5.49,7.02,6.98,80.5
11,4.25,6.57,6.97,82.21
13,10.77,19.24,7.75,62.24
15,9.27,15.53,7.86,67.34
17,7.49,12.5,7.94,72.07
19,5.77,9.87,8.04,76.32
21,4.72,8.49,8.13,78.66
23,4.38,7.28,7.58,80.75
25,13.02,25.51,7.76,53.7
27,9.94,20.93,8.53,60.61
29,8.02,17.77,8.71,65.5
31,6.75,13.69,8.76,70.8
33,5.29,11.52,8.85,74.33
35,5.06,9.11,9.07,76.75
37,3.58,7.56,8.88,79.99
39,2.91,5.82,8.63,82.63
41,11.3,28.07,9.05,51.58
43,9.22,22.14,9.22,59.42
45,7.55,18.98,9.82,63.65
47,6.73,15.15,9.81,68.31
49,5.49,12.21,9.75,72.54
51,4.33,10.0,10.11,75.56
53,3.78,8.09,9.71,78.43
55,2.69,6.26,10.12,80.93
57,12.84,35.51,8.73,42.93
59,10.02,29.97,10.1,49.92
61,8.38,25.02,9.93,56.67
63,7.85,20.09,10.63,61.43
65,6.2,15.58,10.75,67.46
67,5.01,13.85,11.06,70.08
69,4.27,10.81,11.1,73.82
71,3.42,8.32,11.2,77.07
73,2.26,7.27,11.22,79.25
75,2.11,5.28,10.84,81.77
77,10.48,34.81,10.48,44.24
79,8.94,29.05,10.89,51.12
81,6.85,24.44,11.35,57.36
83,5.81,19.53,11.76,62.91
85,5.38,15.69,12.03,66.9
87,4.66,12.6,11.91,70.83
89,3.34,10.59,12.49,73.58
91,2.82,8.09,12.11,76.98
93,1.69,6.44,12.34,79.53
95,11.4,42.49,9.64,36.48
97,9.76,35.95,11.18,43.12
99,8.66,31.48,11.54,48.32
101,7.28,25.59,11.98,55.15
103,5.52,21.51,12.99,59.97
105,5.05,16.43,12.88,65.64
107,4.56,13.23,13.16,69.04
109,3.39,10.47,13.42,72.72
111,2.79,8.65,13.27,75.29
113,2.0,6.84,13.44,77.72
115,1.74,5.11,12.93,80.22
117,9.73,41.62,11.08,37.57
119,9.27,34.62,12.6,43.51
121,6.97,29.82,13.52,49.7
123,5.92,24.39,13.65,56.05
125,5.12,20.8,13.75,60.33
127,4.26,16.21,14.4,65.12
129,3.62,13.48,14.46,68.44
131,2.53,10.48,14.58,72.42
133,2.19,8.67,14.51,74.62
135,1.62,6.05,14.65,77.68
137,8.56,47.54,11.32,32.58
139,8.76,40.4,12.45,38.39
141,7.02,34.64,13.64,44.7
143,5.91,28.72,14.5,50.86
145,5.09,23.4,14.94,56.56
147,3.75,19.55,14.89,61.8
149,3.09,15.35,15.59,65.98
151,2.39,12.01,15.61,69.99
153,2.38,9.89,15.78,71.95
155,2.12,7.41,15.91,74.56
157,1.4,5.63,15.77,77.2
159,8.67,45.83,12.24,33.25
161,7.62,39.46,13.98,38.94
163,6.08,33.29,15.23,45.39
165,5.15,27.71,15.83,51.31
167,4.22,22.96,15.95,56.87
169,3.38,17.75,16.99,61.88
171,2.65,15.08,16.94,65.33
173,2.51,11.7,17.2,68.59
175,1.94,8.98,16.92,72.16
177,2.0,7.04,17.39,73.57
179,7.04,51.67,12.56,28.73
181,7.11,44.62,13.66,34.6
183,6.09,38.12,15.98,39.81
185,4.71,32.07,16.44,46.78
187,4.03,27.71,17.18,51.08
189,3.95,21.96,17.51,56.58
191,3.33,17.99,18.2,60.47
193,2.65,13.98,18.85,64.51
195,1.96,10.69,18.52,68.83
197,1.75,8.91,18.67,70.67
199,1.36,6.84,18.63,73.17
201,6.64,48.63,13.99,30.74
203,6.94,43.39,16.46,33.21
205,4.54,36.68,17.64,41.15
207,4.4,31.04,18.44,46.12
209,4.37,25.69,18.65,51.29
211,3.04,20.32,19.65,56.98
213,2.82,16.02,19.92,61.24
215,2.18,13.38,20.32,64.12
217,2.0,9.71,20.64,67.66
219,1.66,7.6,20.67,70.08
221,6.63,54.85,13.83,24.69
223,5.06,48.86,15.99,30.1
225,4.44,42.71,18.04,34.81
227,4.44,35.41,19.15,41.0
229,3.82,29.08,20.4,46.7
231,2.84,24.03,20.7,52.42
233,2.49,20.24,21.24,56.03
235,2.17,15.14,22.27,60.42
237,1.96,11.83,22.09,64.13
239,1.94,9.29,22.03,66.74
241,1.01,6.58,23.15,69.26
243,4.12,51.94,16.65,27.29
245,3.73,43.96,18.95,33.36
247,3.33,37.61,20.38,38.68
249,3.07,31.72,21.24,43.98
251,2.8,25.8,22.44,48.96
253,2.35,20.59,23.18,53.88
255,1.62,16.5,23.94,57.95
257,1.64,12.45,24.62,61.29
259,1.31,9.98,25.05,63.67
261,5.06,55.06,15.75,24.13
263,4.46,47.73,18.88,28.92
265,3.7,41.98,20.44,33.88
267,3.4,36.36,22.47,37.78
269,3.06,30.37,23.47,43.1
271,2.52,25.48,24.41,47.59
273,2.41,19.66,25.14,52.78
275,1.62,15.05,26.42,56.91
277,2.14,11.72,27.23,58.9
279,1.38,9.32,27.1,62.19
281,3.01,50.45,20.18,26.36
283,2.46,43.89,22.42,31.24
285,2.72,38.42,23.56,35.3
287,3.15,30.97,25.29,40.59
289,1.86,26.58,26.52,45.05
291,2.29,20.19,27.88,49.65
293,2.03,16.06,28.91,53.0
295,2.01,11.67,29.64,56.68
297,3.42,51.92,20.12,24.54
299,2.84,45.37,22.87,28.92
301,2.33,39.43,25.19,33.06
303,1.94,32.41,27.36,38.29
305,2.15,27.51,28.05,42.28
307,2.07,20.9,30.55,46.48
309,1.39,16.95,31.46,50.2
311,1.84,13.1,32.33,52.73
313,2.31,47.61,24.2,25.88
315,1.97,41.27,26.56,30.2
317,2.45,34.01,28.83,34.7
319,1.45,28.58,30.76,39.21
321,2.26,22.81,31.77,43.17
323,2.29,17.59,34.35,45.78
325,2.56,48.84,25.08,23.51
327,1.51,42.59,27.46,28.44
329,1.78,35.78,31.03,31.4
331,1.7,28.71,32.89,36.7
333,2.12,23.57,35.1,39.21
335,0.0,17.89,38.46,43.65
337,2.01,40.08,30.6,27.31
339,1.34,33.54,33.78,31.33
341,0.0,27.89,36.48,35.62
342,0.0,24.62,37.54,37.85