Folder: HEA_electrocatalysis_ML/Burgel/15453660/Composition_Dataset (part 2)

File: ML_6_Ru-rich_Ni-Pd-Pt-Ru_EDX.csv
Index,Ni,Pd,Pt,Ru
1,21.8,4.73,9.34,64.13
3,18.33,3.79,9.06,68.82
5,14.44,3.09,9.21,73.26
7,12.33,2.41,9.17,76.09
9,10.44,2.43,8.95,78.18
11,8.11,1.93,8.94,81.02
13,21.71,5.3,10.3,62.69
15,16.77,4.57,10.37,68.29
17,14.63,3.26,10.22,71.89
19,11.53,3.36,10.32,74.79
21,9.56,1.97,10.29,78.18
23,7.86,2.04,9.89,80.22
25,25.64,7.19,11.07,56.09
27,20.14,6.02,11.13,62.71
29,17.02,4.68,11.4,66.9
31,14.34,3.61,11.28,70.78
33,11.34,3.34,11.45,73.88
35,10.1,2.54,11.26,76.11
37,7.63,2.47,11.01,78.9
39,5.9,1.66,10.9,81.54
41,23.65,7.96,12.02,56.37
43,19.85,6.48,12.24,61.43
45,16.03,5.46,12.18,66.32
47,13.16,4.17,12.41,70.25
49,11.08,4.03,12.39,72.5
51,9.17,2.76,12.57,75.5
53,7.56,1.92,12.14,78.38
55,6.19,2.06,12.0,79.75
57,27.51,10.59,12.89,49.01
59,23.24,8.74,12.97,55.05
61,19.02,6.62,13.57,60.79
63,16.02,5.6,13.42,64.96
65,13.06,5.01,13.65,68.28
67,10.71,3.52,13.65,72.12
69,8.76,3.43,13.85,73.95
71,7.16,2.14,13.59,77.11
73,5.72,1.81,13.45,79.02
75,5.04,1.72,12.8,80.44
77,24.56,9.89,14.22,51.32
79,19.9,7.8,14.58,57.71
81,16.76,6.61,14.82,61.81
83,13.57,5.54,14.77,66.12
85,11.51,4.65,14.86,68.98
87,9.43,3.88,14.92,71.77
89,7.65,3.17,15.19,74.0
91,6.06,2.66,14.65,76.63
93,5.38,1.51,14.55,78.55
95,26.43,13.24,15.06,45.27
97,22.95,11.49,15.74,49.81
99,19.36,9.03,16.23,55.38
101,15.53,7.14,16.06,61.27
103,13.13,6.1,15.94,64.83
105,11.17,4.98,16.07,67.78
107,9.01,3.88,16.39,70.72
109,7.26,2.96,16.33,73.45
111,5.9,2.38,16.15,75.57
113,4.66,2.02,15.88,77.45
115,4.11,1.13,15.57,79.19
117,24.03,12.44,17.02,46.52
119,19.68,10.63,17.17,52.51
121,16.53,8.74,17.25,57.48
123,13.74,7.22,17.64,61.4
125,11.61,6.06,17.56,64.76
127,10.05,4.73,17.22,68.0
129,7.78,4.03,17.63,70.56
131,6.42,3.43,17.39,72.76
133,5.35,2.74,17.44,74.47
135,4.41,2.46,16.96,76.16
137,25.1,14.27,17.57,43.06
139,21.57,12.16,18.53,47.75
141,16.94,10.48,19.88,52.71
143,14.62,8.36,18.88,58.14
145,12.7,7.15,19.34,60.8
147,10.43,5.54,18.99,65.04
149,8.09,5.07,19.02,67.83
151,6.83,3.81,19.04,70.31
153,5.68,3.41,19.04,71.87
155,4.67,2.17,19.0,74.16
157,4.06,2.21,18.13,75.61
159,21.48,14.96,19.25,44.31
161,18.86,12.55,20.46,48.13
163,14.85,9.77,21.05,54.33
165,12.01,8.46,20.67,58.86
167,10.16,7.57,20.54,61.74
169,8.49,5.59,20.94,64.98
171,7.21,4.44,20.61,67.74
173,5.64,3.56,20.63,70.17
175,4.93,2.73,20.68,71.66
177,4.52,2.22,20.25,73.01
179,20.18,18.3,20.65,40.88
181,18.14,14.25,22.2,45.42
183,15.35,12.62,23.01,49.02
185,12.59,9.7,22.74,54.97
187,11.12,8.15,22.25,58.48
189,9.3,6.71,22.49,61.5
191,7.51,5.95,22.25,64.28
193,6.17,4.65,22.16,67.01
195,5.25,3.59,22.46,68.7
197,4.84,2.87,22.09,70.2
199,3.81,2.24,21.83,72.12
201,17.73,16.74,23.57,41.96
203,16.0,14.15,23.9,45.95
205,13.94,11.79,24.61,49.67
207,11.02,9.82,24.54,54.63
209,9.23,8.03,24.38,58.36
211,8.33,6.57,24.04,61.05
213,6.42,5.47,24.12,63.99
215,5.77,4.46,23.72,66.05
217,4.64,2.96,24.16,68.24
219,4.51,2.69,23.98,68.82
221,18.15,20.09,22.86,38.9
223,15.32,17.23,25.6,41.85
225,13.07,13.65,26.45,46.83
227,11.45,11.15,26.68,50.72
229,9.98,9.81,26.35,53.86
231,8.65,8.23,26.32,56.79
233,6.92,6.18,26.46,60.43
235,5.61,5.27,26.26,62.86
237,5.28,3.74,26.48,64.5
239,4.82,3.21,26.27,65.7
241,3.94,2.33,26.04,67.69
243,15.22,18.11,26.32,40.35
245,13.8,14.63,28.57,43.01
247,10.68,11.99,28.9,48.44
249,9.47,9.73,28.83,51.97
251,7.73,8.17,28.6,55.5
253,6.61,6.61,28.88,57.91
255,5.86,5.37,28.85,59.92
257,5.04,3.87,28.97,62.11
259,4.58,3.4,28.73,63.28
261,14.17,21.06,27.67,37.1
263,13.01,16.14,29.68,41.17
265,10.85,14.19,30.78,44.17
267,9.53,11.98,31.1,47.38
269,7.84,10.3,31.34,50.52
271,6.81,7.82,31.06,54.31
273,5.93,6.06,31.13,56.88
275,4.91,5.25,30.95,58.9
277,5.28,3.55,30.72,60.45
279,4.58,3.1,31.16,61.15
281,11.89,18.39,31.26,38.47
283,9.54,15.22,33.59,41.65
285,9.09,12.95,33.69,44.27
287,7.97,9.82,33.75,48.46
289,7.17,7.93,33.63,51.27
291,5.77,6.37,33.84,54.01
293,5.73,5.12,33.56,55.59
295,4.28,3.86,34.34,57.52
297,11.13,18.83,33.83,36.21
299,9.61,15.96,34.78,39.65
301,8.86,13.51,35.06,42.56
303,8.27,10.93,36.0,44.8
305,6.49,8.74,36.04,48.74
307,6.03,7.38,35.87,50.72
309,5.63,5.7,36.89,51.78
311,5.18,4.58,36.72,53.52
313,9.35,16.82,37.04,36.79
315,8.1,13.96,38.18,39.76
317,7.25,11.86,38.39,42.51
319,6.27,9.29,39.13,45.3
321,6.51,7.1,39.57,46.83
323,5.45,5.47,40.35,48.73
325,9.08,16.48,39.23,35.21
327,7.63,13.82,40.93,37.62
329,7.32,11.4,41.39,39.89
331,6.37,9.59,41.91,42.13
333,5.42,7.1,43.5,43.98
335,5.17,5.75,43.65,45.43
337,7.52,13.12,42.8,36.57
339,6.48,11.3,45.07,37.15
341,5.78,8.4,46.11,39.71
342,5.19,7.32,46.23,41.25

File: ML_7_Ru-rich_Ir-Pd-Pt-Ru_EDX.csv
Index,Ir,Pd,Pt,Ru
1,27.32,3.62,8.12,60.94
3,22.68,3.45,7.98,65.89
5,19.5,2.86,7.84,69.81
7,15.4,1.74,8.01,74.85
9,13.38,2.56,8.33,75.73
11,10.44,2.35,8.09,79.13
13,26.47,4.74,8.59,60.2
15,22.27,2.98,8.81,65.94
17,19.26,3.28,8.79,68.66
19,15.8,2.68,9.12,72.4
21,13.48,1.91,8.79,75.81
23,10.83,1.78,9.23,78.16
25,30.95,5.61,9.3,54.14
27,24.99,4.33,9.76,60.92
29,22.45,4.15,9.73,63.67
31,17.9,3.47,9.93,68.7
33,15.06,2.88,10.35,71.72
35,12.63,2.57,10.41,74.39
37,9.43,2.14,10.27,78.15
39,7.35,2.04,10.34,80.27
41,30.39,6.22,9.69,53.71
43,25.42,5.15,10.5,58.93
45,20.39,4.27,10.93,64.41
47,17.47,4.02,10.98,67.53
49,14.56,3.14,11.29,71.01
51,12.38,2.23,11.43,73.95
53,9.59,1.66,11.5,77.25
55,8.31,1.85,11.56,78.28
57,35.56,6.2,11.29,46.95
59,28.71,5.57,11.71,54.01
61,24.01,4.71,11.89,59.39
63,20.05,4.11,12.16,63.68
65,17.24,3.62,12.41,66.73
67,14.71,3.02,12.54,69.73
69,12.64,2.68,12.39,72.29
71,9.84,2.27,12.48,75.41
73,7.33,1.38,12.65,78.64
75,6.07,1.39,12.57,79.98
77,31.03,6.45,12.82,49.7
79,26.55,6.01,12.74,54.7
81,22.15,5.31,12.76,59.77
83,19.16,4.2,13.34,63.31
85,15.72,3.97,13.33,66.98
87,13.19,3.37,13.35,70.08
89,11.1,2.62,13.81,72.47
91,8.63,2.32,13.81,75.23
93,5.55,2.39,14.0,78.06
95,36.43,8.62,12.14,42.81
97,29.94,7.33,13.48,49.25
99,25.66,5.97,13.92,54.45
101,21.35,5.46,14.16,59.03
103,17.85,4.9,14.52,62.72
105,15.75,4.04,14.33,65.88
107,12.81,3.6,14.76,68.83
109,9.93,2.76,15.12,72.19
111,8.24,2.04,15.09,74.63
113,6.43,2.07,15.27,76.22
115,4.34,1.66,15.43,78.57
117,31.25,9.09,14.58,45.08
119,26.63,8.51,15.22,49.64
121,22.21,6.96,15.59,55.23
123,18.88,5.39,16.12,59.61
125,16.48,4.49,15.61,63.42
127,13.7,4.29,15.97,66.05
129,10.55,3.0,16.58,69.88
131,8.52,2.53,16.41,72.54
133,7.21,3.12,16.21,73.45
135,5.5,2.28,16.39,75.83
137,32.02,10.08,15.89,42.02
139,27.56,9.26,16.31,46.87
141,23.27,7.9,17.47,51.35
143,20.4,6.43,17.05,56.12
145,16.67,6.27,17.0,60.07
147,14.15,5.33,17.69,62.83
149,11.96,3.98,17.51,66.55
151,9.58,3.19,17.98,69.24
153,7.37,2.65,18.42,71.56
155,5.37,2.28,18.38,73.97
157,4.5,2.34,17.93,75.22
159,29.61,10.43,17.94,42.01
161,25.09,8.49,18.55,47.88
163,20.96,7.69,18.51,52.84
165,18.09,6.75,18.63,56.53
167,15.13,5.44,19.17,60.26
169,12.36,4.9,19.04,63.7
171,10.19,3.92,19.53,66.35
173,8.04,3.01,19.5,69.45
175,6.18,2.47,19.81,71.54
177,5.11,1.91,20.33,72.65
179,29.81,11.73,18.61,39.86
181,26.02,10.14,19.76,44.07
183,22.41,8.58,20.31,48.69
185,18.82,7.19,20.61,53.38
187,15.52,6.36,20.98,57.14
189,13.35,4.92,20.7,61.03
191,10.33,5.01,20.97,63.69
193,8.84,3.8,21.2,66.16
195,6.5,3.49,21.28,68.74
197,4.69,2.56,22.15,70.6
199,4.03,1.62,22.12,72.23
201,26.43,11.53,21.11,40.93
203,23.13,9.89,21.9,45.08
205,19.39,8.65,22.28,49.68
207,17.6,6.99,22.3,53.12
209,14.22,5.87,22.54,57.37
211,12.11,5.21,22.47,60.21
213,9.54,4.66,22.91,62.89
215,7.15,3.59,23.49,65.77
217,6.04,3.44,23.23,67.29
219,4.63,2.2,23.73,69.44
221,26.61,13.92,22.11,37.36
223,23.83,11.72,23.24,41.21
225,20.31,9.52,24.29,45.87
227,16.55,9.32,24.65,49.48
229,13.92,7.59,24.52,53.97
231,12.6,5.06,24.79,57.55
233,9.95,5.05,25.01,59.99
235,7.53,4.48,25.09,62.9
237,6.47,3.94,25.19,64.4
239,4.63,2.76,26.33,66.28
241,3.74,2.01,26.63,67.62
243,22.9,11.76,25.65,39.69
245,19.32,10.28,26.42,43.98
247,17.8,8.53,26.38,47.29
249,13.43,8.2,27.07,51.3
251,11.03,6.34,27.2,55.44
253,8.47,5.66,27.61,58.26
255,7.11,4.78,27.46,60.65
257,6.08,3.6,27.93,62.39
259,4.41,3.5,28.92,63.17
261,22.13,14.51,25.78,37.58
263,18.84,11.55,27.74,41.87
265,16.53,10.74,28.37,44.35
267,14.05,9.74,28.47,47.75
269,10.94,6.62,29.61,52.83
271,9.5,6.67,29.93,53.9
273,8.04,5.09,30.08,56.78
275,6.77,4.43,30.35,58.44
277,4.54,3.4,31.01,61.06
279,3.09,2.48,32.68,61.75
281,16.52,14.39,30.17,38.92
283,15.22,11.14,31.49,42.15
285,12.57,10.07,32.02,45.34
287,10.81,8.25,32.47,48.47
289,9.15,6.54,32.77,51.55
291,7.61,4.76,33.2,54.43
293,5.18,4.12,33.46,57.24
295,6.12,2.9,33.88,57.1
297,15.99,13.41,31.53,39.08
299,14.35,12.57,32.97,40.11
301,11.85,10.81,34.2,43.14
303,9.47,9.11,34.86,46.56
305,8.27,7.63,35.42,48.68
307,7.53,5.8,35.07,51.61
309,5.83,5.03,36.38,52.76
311,3.8,3.72,37.59,54.89
313,12.23,13.17,35.43,39.17
315,10.98,10.63,37.26,41.13
317,9.33,9.28,37.39,44.0
319,7.57,7.72,38.12,46.58
321,7.19,5.71,39.03,48.08
323,5.46,5.16,40.36,49.01
325,11.73,14.44,38.15,35.68
327,10.83,12.27,38.67,38.24
329,8.88,9.37,40.23,41.52
331,8.57,7.63,40.71,43.09
333,6.26,6.16,41.51,46.07
335,5.23,5.04,43.67,46.06
337,9.23,10.57,42.29,37.91
339,6.46,9.94,43.66,39.94
341,6.58,6.64,44.99,41.79
342,5.54,6.45,46.48,41.52

File: ML_8_Pt-rich_Ir-Pd-Pt-Ru_EDX.csv
Index,Ir,Pd,Pt,Ru
1,35.96,3.2,47.59,13.25
3,31.03,3.55,50.07,15.35
5,27.21,2.65,53.85,16.29
7,22.29,2.34,56.57,18.8
9,18.98,2.11,58.5,20.4
11,16.7,0.96,61.13,21.22
13,33.95,3.96,49.67,12.43
15,29.13,3.71,52.13,15.03
17,24.16,3.07,56.06,16.71
19,22.01,2.72,58.82,16.45
21,18.65,1.75,60.4,19.2
23,15.4,1.72,62.42,20.46
25,34.46,5.64,49.93,9.97
27,29.74,4.33,53.84,12.09
29,26.43,3.43,56.53,13.61
31,22.92,3.5,58.63,14.96
33,19.56,2.42,62.05,15.97
35,17.42,2.55,62.89,17.15
37,13.51,2.43,65.22,18.84
39,10.83,1.77,66.79,20.62
41,32.24,5.57,52.62,9.57
43,28.12,4.07,57.25,10.56
45,23.97,3.41,59.75,12.87
47,20.52,2.92,62.48,14.08
49,18.08,2.72,64.44,14.76
51,15.99,1.33,65.99,16.69
53,12.64,1.83,68.78,16.75
55,9.74,1.26,69.51,19.5
57,33.77,5.46,52.51,8.27
59,29.86,5.63,54.89,9.62
61,25.32,4.47,59.25,10.96
63,22.68,3.95,61.55,11.81
65,18.8,3.13,64.75,13.32
67,16.46,2.6,66.33,14.61
69,14.65,1.27,69.16,14.92
71,12.43,1.82,69.13,16.62
73,9.5,1.64,72.4,16.46
75,7.78,0.93,73.43,17.85
77,28.26,6.12,56.75,8.87
79,26.97,4.83,58.63,9.58
81,22.04,4.25,63.37,10.34
83,20.32,3.13,65.41,11.13
85,15.93,3.59,67.79,12.69
87,13.39,2.07,70.72,13.81
89,12.52,1.94,71.34,14.2
91,9.42,2.04,73.41,15.13
93,7.7,1.22,75.82,15.26
95,30.11,5.99,57.01,6.89
97,27.2,5.95,59.01,7.84
99,23.64,5.19,63.45,7.72
101,19.85,4.29,66.28,9.58
103,17.82,3.93,67.98,10.26
105,14.83,3.11,70.38,11.68
107,13.5,2.57,70.86,13.07
109,11.05,2.08,73.75,13.12
111,8.2,1.71,75.33,14.75
113,6.52,1.33,77.2,14.94
115,4.29,-0.24,78.78,17.17
117,27.67,7.0,58.86,6.47
119,23.2,5.9,62.85,8.05
121,19.69,5.36,65.05,9.9
123,16.92,4.38,69.01,9.69
125,16.06,3.35,70.18,10.4
127,13.69,2.01,73.15,11.15
129,11.18,2.2,74.99,11.64
131,8.71,1.75,76.15,13.39
133,7.71,1.07,78.07,13.15
135,4.91,1.11,80.17,13.81
137,27.61,7.14,59.9,5.35
139,23.09,6.21,63.89,6.8
141,19.81,5.86,65.99,8.33
143,17.39,4.13,70.0,8.48
145,15.79,3.76,71.36,9.1
147,12.97,2.56,73.76,10.7
149,10.53,2.38,76.4,10.69
151,9.42,2.11,77.5,10.97
153,6.91,1.19,80.3,11.6
155,5.2,1.42,80.43,12.95
157,4.48,0.75,81.12,13.64
159,22.39,6.64,64.41,6.56
161,19.62,6.11,67.51,6.76
163,17.07,4.93,70.52,7.48
165,15.0,4.14,72.05,8.8
167,12.54,4.13,74.0,9.33
169,10.86,2.56,76.85,9.73
171,9.11,2.31,78.97,9.61
173,6.93,1.62,80.3,11.15
175,4.93,1.54,82.53,11.0
177,4.0,1.23,83.04,11.73
179,22.52,7.61,65.08,4.79
181,19.53,6.71,67.5,6.25
183,16.23,5.36,71.43,6.99
185,14.46,4.68,73.61,7.26
187,12.21,4.06,75.6,8.13
189,10.63,3.3,77.22,8.85
191,8.29,3.08,78.92,9.71
193,7.29,1.81,80.62,10.28
195,4.98,1.5,83.68,9.84
197,4.13,1.65,83.39,10.83
199,2.94,0.45,85.73,10.88
201,21.25,6.29,67.25,5.21
203,17.2,6.33,71.05,5.42
205,15.16,5.01,74.6,5.23
207,12.37,3.89,77.38,6.36
209,10.57,3.51,78.37,7.55
211,8.47,2.78,80.48,8.27
213,7.59,2.23,81.39,8.79
215,5.89,1.35,83.29,9.47
217,4.89,1.46,84.21,9.44
219,3.05,0.7,86.46,9.79
221,18.88,8.2,68.67,4.25
223,15.58,7.07,71.77,5.58
225,13.29,5.41,75.61,5.69
227,11.66,5.03,76.98,6.32
229,9.6,3.81,80.37,6.22
231,8.19,3.39,81.08,7.34
233,7.63,2.48,82.09,7.8
235,6.11,2.12,83.9,7.88
237,4.64,1.3,86.05,8.02
239,4.02,1.53,85.75,8.7
241,3.08,1.01,87.3,8.61
243,14.45,6.5,74.76,4.28
245,12.17,5.82,77.17,4.84
247,9.87,4.38,80.27,5.49
249,8.43,3.65,81.72,6.2
251,7.14,3.1,83.72,6.05
253,6.11,2.94,84.56,6.38
255,5.05,2.36,85.57,7.01
257,3.77,1.19,87.62,7.41
259,3.51,1.02,87.99,7.48
261,13.87,7.42,74.76,3.96
263,11.94,6.18,77.68,4.19
265,9.88,5.3,79.65,5.16
267,8.62,4.13,81.76,5.5
269,7.49,3.96,82.04,6.5
271,4.96,3.53,85.59,5.92
273,4.41,2.37,86.85,6.38
275,4.49,1.45,87.33,6.73
277,2.6,1.28,89.02,7.1
279,1.82,1.33,90.35,6.49
281,10.06,7.2,78.58,4.16
283,9.45,5.44,80.55,4.56
285,7.71,4.55,82.58,5.16
287,7.36,3.26,84.53,4.85
289,4.57,3.2,86.18,6.05
291,4.46,2.5,87.49,5.55
293,3.85,1.67,88.26,6.21
295,2.73,1.62,89.51,6.14
297,8.77,7.3,80.3,3.63
299,7.76,5.02,82.7,4.52
301,6.62,4.45,84.27,4.66
303,4.93,3.53,86.67,4.87
305,5.4,2.86,87.73,4.02
307,4.6,2.72,87.91,4.78
309,3.02,1.3,90.67,5.0
311,2.63,1.22,90.82,5.33
313,7.53,5.34,83.08,4.04
315,5.37,5.17,85.46,4.0
317,4.22,3.75,87.81,4.22
319,3.74,3.36,88.67,4.22
321,2.74,2.77,89.82,4.68
323,2.05,1.12,92.21,4.61
325,4.62,5.92,85.99,3.48
327,5.23,4.13,86.81,3.83
329,4.21,3.86,88.36,3.57
331,3.33,2.86,89.93,3.88
333,2.91,2.18,91.12,3.79
335,2.86,2.15,91.08,3.91
337,3.82,3.64,89.37,3.17
339,3.32,3.02,89.69,3.97
341,3.2,2.31,91.07,3.41
342,2.85,1.79,91.89,3.47

File: ML_9_Pd-rich_Ir-Pd-Pt-Ru_EDX.csv
Index,Ir,Pd,Pt,Ru
1,25.59,51.93,6.55,15.94
3,24.97,47.51,7.82,19.7
5,23.37,43.3,8.49,24.84
7,21.65,38.5,10.59,29.27
9,20.24,33.81,11.88,34.07
11,17.85,29.46,13.21,39.48
13,23.72,54.45,7.27,14.57
15,22.64,50.5,7.64,19.22
17,20.6,46.28,9.6,23.52
19,19.86,41.01,11.23,27.9
21,18.74,36.85,12.25,32.15
23,16.78,31.77,14.17,37.28
25,22.16,61.49,5.94,10.41
27,20.78,58.66,7.08,13.49
29,20.35,53.44,8.22,17.98
31,19.43,48.61,10.16,21.8
33,18.83,44.05,11.35,25.77
35,17.05,38.82,13.32,30.82
37,16.17,33.16,15.24,35.43
39,13.43,29.18,16.4,40.99
41,19.46,64.65,6.09,9.81
43,19.05,60.76,6.9,13.29
45,18.85,57.32,8.9,14.93
47,17.53,51.64,10.89,19.94
49,17.49,46.62,12.03,23.86
51,17.02,40.56,13.82,28.6
53,15.17,35.83,15.93,33.07
55,13.3,29.79,18.21,38.7
57,17.51,69.89,5.1,7.5
59,18.01,66.66,6.12,9.21
61,17.07,62.68,7.49,12.77
63,17.99,58.39,9.11,14.51
65,15.59,54.33,10.83,19.25
67,15.52,49.22,12.77,22.5
69,15.95,42.32,14.36,27.37
71,13.35,37.82,17.18,31.65
73,12.16,32.05,19.37,36.43
75,9.86,27.36,20.37,42.42
77,16.11,70.6,5.85,7.44
79,15.59,67.45,7.15,9.81
81,15.76,63.19,8.41,12.64
83,15.45,59.33,9.8,15.42
85,15.17,54.02,11.84,18.97
87,13.87,48.75,14.04,23.34
89,13.13,43.28,16.66,26.93
91,12.37,36.24,18.82,32.56
93,10.15,31.16,21.46,37.23
95,13.96,75.29,5.12,5.64
97,14.43,72.72,6.02,6.83
99,14.72,68.99,7.48,8.81
101,13.31,66.26,9.09,11.34
103,13.74,60.84,10.35,15.07
105,13.34,56.48,12.25,17.93
107,13.51,50.87,14.56,21.06
109,12.2,45.53,17.01,25.25
111,11.3,38.93,19.55,30.22
113,9.8,32.9,22.3,35.01
115,8.63,27.08,24.42,39.86
117,13.38,75.33,5.73,5.56
119,13.15,72.84,6.76,7.25
121,12.79,69.17,8.27,9.77
123,13.11,65.55,9.81,11.53
125,13.01,60.82,11.42,14.74
127,12.87,55.76,13.35,18.03
129,12.17,49.92,16.21,21.7
131,10.68,43.91,18.87,26.54
133,9.99,37.03,21.8,31.18
135,8.73,31.16,24.65,35.46
137,11.66,78.37,5.34,4.63
139,11.71,76.1,6.22,5.98
141,12.27,72.57,7.87,7.29
143,12.28,68.48,9.35,9.89
145,11.92,65.07,10.85,12.17
147,10.96,60.49,13.06,15.49
149,10.61,55.12,15.24,19.03
151,10.37,49.18,17.69,22.76
153,9.63,42.46,20.86,27.05
155,8.46,35.79,24.66,31.09
157,6.52,29.98,27.28,36.22
159,10.89,78.79,5.5,4.82
161,10.71,76.28,6.96,6.05
163,11.19,72.03,8.88,7.91
165,10.48,69.13,10.12,10.26
167,10.66,64.88,12.23,12.23
169,9.67,61.02,14.42,14.89
171,9.48,54.25,17.37,18.91
173,9.55,47.12,20.43,22.9
175,7.66,41.0,23.74,27.6
177,6.99,34.51,27.15,31.35
179,8.97,81.46,5.45,4.11
181,10.11,78.51,6.57,4.8
183,10.18,75.52,7.94,6.36
185,9.94,71.94,9.66,8.47
187,9.76,68.26,11.63,10.35
189,9.21,64.58,13.82,12.39
191,9.59,58.68,15.97,15.76
193,8.35,52.91,18.92,19.82
195,8.65,46.56,22.52,22.27
197,6.34,38.74,27.36,27.56
199,6.7,31.66,31.06,30.58
201,8.62,81.06,6.09,4.24
203,8.88,78.49,7.57,5.06
205,9.2,75.25,9.04,6.51
207,8.7,71.98,10.85,8.47
209,8.88,67.98,12.72,10.42
211,8.51,63.72,14.8,12.97
213,7.57,58.27,18.22,15.94
215,6.56,51.59,21.71,20.14
217,7.2,43.52,25.27,24.0
219,5.96,35.99,30.36,27.69
221,7.26,83.88,5.38,3.48
223,8.32,80.58,6.75,4.34
225,7.38,79.03,8.46,5.13
227,7.68,75.19,10.25,6.88
229,8.09,71.64,11.65,8.62
231,7.78,67.86,14.04,10.31
233,7.38,63.08,16.68,12.87
235,6.7,56.12,20.69,16.49
237,6.63,48.97,24.21,20.18
239,6.43,41.25,28.81,23.51
241,6.09,34.02,32.56,27.33
243,6.31,83.03,7.05,3.6
245,7.16,79.75,8.39,4.7
247,7.15,76.48,10.34,6.04
249,6.8,73.04,12.33,7.83
251,6.64,69.43,14.37,9.56
253,6.31,64.63,17.25,11.8
255,6.41,57.64,20.57,15.37
257,5.91,50.57,25.85,17.67
259,4.85,43.77,29.92,21.47
261,5.77,84.78,6.07,3.38
263,6.03,82.61,7.74,3.62
265,5.26,80.06,9.7,4.98
267,5.58,76.71,11.22,6.49
269,5.83,73.0,13.8,7.37
271,5.16,68.63,16.29,9.92
273,5.51,62.8,19.62,12.08
275,5.66,55.45,24.01,14.88
277,4.02,49.49,28.91,17.58
279,3.87,39.34,34.75,22.04
281,4.81,83.74,7.73,3.72
283,5.25,80.25,9.63,4.87
285,4.62,78.33,11.5,5.55
287,5.41,74.39,13.45,6.75
289,5.63,69.13,16.51,8.74
291,5.31,63.52,20.19,10.98
293,5.0,56.64,24.79,13.57
295,4.52,48.86,30.26,16.36
297,4.2,85.0,7.74,3.06
299,4.63,81.82,9.51,4.04
301,4.51,78.95,11.9,4.64
303,4.86,75.25,13.93,5.96
305,4.96,70.12,17.07,7.85
307,4.85,64.11,20.91,10.13
309,4.49,57.87,25.88,11.75
311,3.98,49.41,30.94,15.68
313,3.87,82.84,9.69,3.6
315,3.74,80.29,11.72,4.25
317,3.95,75.67,14.17,6.21
319,3.74,71.63,17.44,7.2
321,3.02,66.21,21.93,8.84
323,3.88,58.68,26.96,10.48
325,2.95,83.85,9.6,3.61
327,3.23,80.79,12.09,3.89
329,3.35,76.87,14.58,5.2
331,3.17,72.09,17.78,6.96
333,3.04,66.23,22.49,8.24
335,3.04,58.76,28.18,10.02
337,3.37,79.21,13.42,4.01
339,3.01,75.03,16.76,5.19
341,2.98,70.15,20.86,6.01
342,3.18,65.7,23.66,7.46

File: ML_10_Ir-rich_Ir-Pd-Pt-Ru_EDX.csv
Index,Ir,Pd,Pt,Ru
1,87.43,1.48,3.83,7.27
3,85.66,1.31,4.12,8.91
5,82.13,1.54,5.48,10.86
7,78.72,1.62,7.07,12.59
9,74.29,1.11,9.03,15.56
11,68.03,1.21,12.17,18.6
13,86.32,2.2,4.21,7.26
15,83.87,2.11,4.97,9.06
17,81.49,1.59,6.42,10.5
19,78.04,1.2,7.84,12.93
21,72.55,1.99,9.5,15.95
23,67.6,1.64,12.18,18.58
25,88.09,1.81,4.07,6.04
27,86.19,1.99,4.69,7.14
29,83.5,1.9,6.06,8.53
31,79.68,1.64,7.79,10.89
33,76.6,1.75,8.68,12.97
35,71.55,2.21,10.98,15.26
37,66.63,1.67,13.3,18.41
39,60.19,1.16,17.12,21.53
41,87.01,2.6,4.17,6.22
43,85.29,2.18,5.32,7.2
45,82.65,2.24,6.43,8.67
47,78.42,2.24,8.64,10.71
49,75.01,2.18,9.81,12.99
51,70.96,2.47,11.58,14.99
53,65.74,2.0,14.55,17.71
55,58.17,1.82,18.03,21.98
57,88.86,2.74,4.09,4.3
59,85.93,2.58,5.14,6.35
61,84.05,2.32,6.21,7.42
63,80.56,2.63,7.61,9.21
65,77.73,2.33,8.99,10.95
67,73.63,2.62,10.91,12.84
69,70.67,2.08,12.86,14.39
71,64.4,1.99,15.9,17.71
73,56.29,2.0,19.84,21.87
75,50.05,1.78,24.23,23.94
77,87.19,2.65,5.05,5.11
79,84.2,2.86,6.26,6.69
81,81.61,2.59,8.01,7.78
83,78.36,2.34,9.84,9.46
85,74.65,2.65,11.06,11.64
87,70.03,3.09,13.6,13.28
89,65.6,2.21,16.2,15.98
91,59.5,1.85,19.47,19.17
93,52.12,1.19,24.03,22.66
95,88.61,3.33,4.19,3.86
97,86.02,3.14,5.55,5.3
99,83.04,3.33,7.28,6.35
101,80.7,2.98,8.68,7.65
103,77.96,2.8,10.47,8.77
105,73.08,2.9,12.35,11.67
107,69.17,2.29,15.04,13.49
109,63.93,2.11,17.7,16.26
111,57.92,1.93,21.3,18.85
113,49.85,2.4,25.75,22.0
115,42.73,1.64,30.46,25.18
117,86.07,3.46,5.87,4.6
119,83.41,3.75,7.07,5.77
121,80.29,3.44,8.59,7.68
123,77.86,3.14,10.59,8.41
125,73.72,3.07,12.5,10.7
127,70.36,2.41,15.32,11.91
129,65.27,3.19,17.64,13.9
131,58.98,2.61,21.37,17.04
133,51.93,2.56,25.37,20.15
135,44.64,1.49,31.12,22.75
137,86.63,4.11,5.19,4.08
139,83.81,4.2,6.54,5.45
141,81.03,3.98,8.65,6.34
143,78.34,3.48,10.59,7.59
145,74.41,3.88,12.68,9.03
147,70.68,3.13,15.34,10.85
149,66.37,2.92,18.0,12.71
151,59.84,3.61,21.54,15.01
153,53.9,2.66,25.43,18.0
155,47.19,2.87,29.51,20.44
157,39.8,1.99,35.33,22.89
159,83.93,4.82,7.22,4.03
161,81.32,4.68,8.51,5.48
163,77.95,4.53,10.95,6.57
165,74.65,4.15,12.95,8.26
167,70.81,3.73,15.42,10.04
169,67.4,4.27,17.89,10.44
171,61.4,3.35,21.6,13.65
173,55.75,3.11,25.48,15.66
175,48.42,2.72,30.32,18.54
177,41.25,3.25,35.06,20.44
179,83.92,4.78,7.03,4.26
181,81.06,4.87,8.9,5.17
183,78.53,4.92,10.98,5.57
185,74.2,5.34,13.18,7.28
187,71.72,4.11,15.35,8.82
189,66.45,4.41,18.73,10.41
191,62.07,3.74,21.57,12.63
193,56.67,3.69,25.38,14.26
195,49.25,3.46,30.16,17.14
197,41.88,2.7,35.83,19.59
199,35.9,2.19,40.28,21.63
201,80.27,6.03,9.59,4.11
203,79.52,4.75,11.24,4.48
205,75.34,4.96,13.5,6.2
207,71.27,5.31,15.72,7.7
209,67.02,5.19,18.33,9.47
211,63.13,4.61,22.09,10.17
213,57.25,3.97,25.67,13.12
215,50.09,3.97,30.47,15.47
217,44.07,2.83,35.37,17.73
219,38.15,2.71,39.91,19.23
221,80.17,6.58,9.1,4.15
223,78.0,5.95,11.24,4.8
225,75.32,5.96,13.19,5.54
227,71.22,5.36,16.38,7.04
229,67.65,4.69,19.21,8.44
231,62.12,5.85,22.28,9.75
233,57.05,5.2,26.18,11.57
235,51.76,4.54,30.53,13.17
237,45.82,3.03,35.22,15.93
239,39.32,3.86,40.85,15.97
241,33.76,2.16,45.7,18.38
243,76.67,6.32,12.53,4.48
245,72.33,6.36,15.32,5.99
247,68.93,6.3,18.42,6.35
249,64.52,6.19,21.34,7.96
251,59.66,5.97,25.07,9.3
253,53.39,5.62,29.78,11.21
255,48.77,4.84,33.63,12.76
257,42.84,3.61,38.78,14.77
259,36.88,3.5,43.68,15.94
261,75.31,7.44,13.09,4.15
263,70.87,7.3,15.93,5.9
265,68.03,7.28,18.43,6.25
267,64.5,6.43,21.96,7.11
269,59.63,6.48,25.51,8.39
271,53.5,6.54,29.56,10.41
273,47.82,6.13,33.91,12.14
275,42.56,5.55,38.69,13.2
277,38.11,3.68,44.76,13.45
279,32.58,3.33,48.53,15.56
281,68.35,8.43,17.61,5.61
283,64.67,8.08,21.21,6.04
285,59.93,8.4,24.31,7.36
287,57.16,7.26,27.96,7.62
289,50.76,7.24,32.14,9.85
291,46.21,5.99,36.63,11.17
293,39.31,5.37,42.74,12.57
295,34.76,4.53,47.09,13.62
297,64.72,10.25,19.86,5.18
299,60.02,9.87,23.67,6.44
301,56.76,8.8,27.42,7.02
303,52.75,8.1,31.12,8.03
305,47.3,7.67,35.07,9.97
307,43.56,6.46,40.01,9.97
309,38.24,5.13,45.09,11.54
311,33.21,4.24,50.58,11.96
313,57.4,10.8,26.32,5.48
315,54.41,9.71,30.11,5.77
317,49.39,8.84,34.01,7.76
319,45.11,7.61,38.75,8.53
321,40.61,6.82,43.51,9.06
323,35.36,5.98,48.7,9.96
325,55.17,11.37,28.1,5.35
327,49.27,10.33,33.48,6.92
329,46.19,9.5,37.06,7.24
331,41.56,8.88,42.4,7.16
333,36.58,7.96,46.13,9.33
335,31.99,6.14,52.05,9.83
337,44.92,11.18,37.88,6.02
339,41.1,9.4,42.57,6.93
341,36.87,8.75,47.1,7.28
342,33.8,7.74,50.17,8.3